time,Timestamp,AccelerationZ,AccelerationY,AccelerationX
1729249992163008800,0.4940087890625,10.01524543762207,1.9512743949890137,-0.3926490843296051
1729249992172998000,0.503997802734375,10.046369552612305,2.0159177780151367,-0.20350714027881622
1729249992182997800,0.513997802734375,9.967360496520996,1.965639591217041,-0.19871874153614044
1729249992192998000,0.523997802734375,9.687239646911621,1.8052281141281128,-0.33758243918418884
1729249992202997800,0.533997802734375,9.273042678833008,1.7166426181793213,-0.6129156351089478
1729249992212998000,0.543997802734375,8.885181427001953,1.699883222579956,-0.8858546018600464
1729249992222997800,0.553997802734375,8.626607894897461,1.6927006244659424,-1.05105459690094
1729249992232998000,0.563997802734375,8.430283546447754,1.721431016921997,-1.1180921792984009
1729249992242997800,0.573997802734375,8.245929718017578,1.8291701078414917,-1.0247182846069336
1729249992252998000,0.583997802734375,8.178892135620117,2.0159177780151367,-0.8403648138046265
1729249992262997800,0.593997802734375,8.183680534362793,2.2577321529388428,-0.6368576288223267
1729249992272998000,0.603997802734375,8.19565200805664,2.4444799423217773,-0.5434837937355042
1729249992282997800,0.613997802734375,8.245929718017578,2.655169725418091,-0.3998316824436188
1729249992292998000,0.623997802734375,8.365639686584473,2.851494312286377,-0.27054479718208313
1729249992302998800,0.633998779296875,8.447042465209961,2.9688100814819336,-0.1628057211637497
1729249992312998700,0.64399853515625,8.487744331359863,3.1028854846954346,-0.090979665517807
1729249992322998800,0.653998779296875,8.55717658996582,3.220201253890991,-0.05746084079146385
1729249992332998700,0.66399853515625,8.710405349731445,3.4093432426452637,0.011971008032560349
1729249992342999300,0.673999267578125,8.942642211914062,3.536235809326172,0.14604631066322327
1729249992353000000,0.684,9.059958457946777,3.5865142345428467,0.17717093229293823
1729249992362999800,0.693999755859375,9.210793495178223,3.581725835800171,0.1843535304069519
1729249992373000000,0.704,9.574711799621582,3.620033025741577,0.22266076505184174
1729249992382999800,0.713999755859375,10.032004356384277,3.6391866207122803,0.31124621629714966
1729249992393000000,0.724,10.427047729492188,3.56017804145813,0.4141969084739685
1729249992402999800,0.733999755859375,10.790966033935547,3.5218706130981445,0.48602294921875
1729249992413000000,0.744,11.219528198242188,3.4811692237854004,0.6105214357376099
1729249992422999800,0.753999755859375,11.631331443786621,3.3925838470458984,0.8619126081466675
1729249992433000000,0.764,11.885116577148438,3.28963303565979,1.048660397529602
1729249992443000000,0.774,12.074258804321289,3.220201253890991,1.1803414821624756
1729249992453000000,0.784,12.244246482849121,3.2968156337738037,1.2449848651885986
1729249992463000300,0.794000244140625,12.071864128112793,3.4093432426452637,1.1635819673538208
1729249992473000400,0.80400048828125,11.808502197265625,3.44765043258667,1.0989385843276978
1729249992483000300,0.814000244140625,11.590629577636719,3.3710360527038574,1.1827356815338135
1729249992493000400,0.82400048828125,11.585841178894043,3.3279404640197754,1.3527239561080933
1729249992503000300,0.834000244140625,11.662455558776855,3.361459255218506,1.4484920501708984
1729249992513000400,0.84400048828125,11.695974349975586,3.404554843902588,1.479616641998291
1729249992523000600,0.85400048828125,11.672032356262207,3.35667085647583,1.5418659448623657
1729249992533000400,0.86400048828125,11.528380393981934,3.179499864578247,1.678335428237915
1729249992543000800,0.874000732421875,11.32966136932373,2.9688100814819336,1.8100165128707886
1729249992553001000,0.8840009765625,11.07827091217041,2.760514497756958,1.922544002532959
1729249992563001000,0.8940009765625,11.025598526000977,2.5234885215759277,2.0254945755004883
1729249992573001000,0.9040009765625,11.174038887023926,2.2146365642547607,2.1140801906585693
1729249992583001000,0.9140009765625,11.324872970581055,1.845929503440857,2.183511972427368
1729249992593001000,0.9240009765625,11.478102684020996,1.4389152526855469,2.1308395862579346
1729249992603000600,0.93400048828125,11.521198272705078,1.2306196689605713,1.946485996246338
1729249992613000700,0.944000732421875,11.461342811584473,1.0007762908935547,1.7070658206939697
1729249992623000600,0.95400048828125,11.152490615844727,0.8595184087753296,1.5155296325683594
1729249992633000700,0.964000732421875,10.635343551635742,0.8020575642585754,1.3670891523361206
1729249992643000300,0.974000244140625,10.113407135009766,0.9074024558067322,1.2641384601593018
1729249992653000000,0.984,9.651326179504395,1.05105459690094,1.2737152576446533
1729249992662999800,0.993999755859375,9.234735488891602,1.2234370708465576,1.2521674633026123
1729249992673000000,1.004,8.877999305725098,1.3670891523361206,1.237802267074585
1729249992683000300,1.014000244140625,8.607454299926758,1.525106430053711,1.2401964664459229
1729249992693000200,1.024000244140625,8.492532730102539,1.6208745241165161,1.2401964664459229
1729249992703000600,1.03400048828125,8.494926452636719,1.7190368175506592,1.1851298809051514
1729249992713000700,1.044000732421875,8.5595703125,1.7836803197860718,1.1635819673538208
1729249992723000600,1.05400048828125,8.669703483581543,1.8794482946395874,1.1204863786697388
1729249992733000400,1.06400048828125,8.719982147216797,1.9129672050476074,0.9528923034667969
1729249992743000600,1.07400048828125,8.669703483581543,1.9991583824157715,0.790086567401886
1729249992753000400,1.08400048828125,8.631396293640137,2.1332337856292725,0.6368576288223267
1729249992763000600,1.09400048828125,8.588300704956055,2.296039342880249,0.5291185975074768
1729249992773000400,1.10400048828125,8.463802337646484,2.4827871322631836,0.4836287498474121
1729249992783000600,1.11400048828125,8.272266387939453,2.676717519760132,0.4381389021873474
1729249992793000400,1.12400048828125,8.111854553222656,2.8586769104003906,0.4141969084739685
1729249992803000800,1.134000732421875,8.004115104675293,3.0166940689086914,0.38067805767059326
1729249992813001000,1.1440009765625,7.93707799911499,3.160346269607544,0.3280056416988373
1729249992823001000,1.1540009765625,7.951443195343018,3.2537200450897217,0.2322375625371933
1729249992833001200,1.164001220703125,8.04002857208252,3.2848446369171143,0.11971008777618408
1729249992843000800,1.174000732421875,8.116642951965332,3.2106244564056396,-0.047884032130241394
1729249992853000700,1.184000732421875,8.28663158416748,3.0597896575927734,-0.22744916379451752
1729249992863000600,1.19400048828125,8.506897926330566,2.9305028915405273,-0.43335050344467163
1729249992873000700,1.204000732421875,8.719982147216797,2.889801502227783,-0.5793967843055725
1729249992883000600,1.21400048828125,8.858845710754395,2.9161376953125,-0.6344634294509888
1729249992893000700,1.224000732421875,8.973767280578613,3.0119056701660156,-0.6607996821403503
1729249992903000600,1.23400048828125,9.026439666748047,3.1651346683502197,-0.5985504388809204
1729249992913000700,1.244000732421875,9.036016464233398,3.3518824577331543,-0.5195417404174805
1729249992923000600,1.25400048828125,9.055170059204102,3.5003228187561035,-0.5099649429321289
1729249992933000700,1.264000732421875,9.179668426513672,3.620033025741577,-0.47644615173339844
1729249992943000600,1.27400048828125,9.354445457458496,3.7612907886505127,-0.3758896589279175
1729249992953000700,1.284000732421875,9.536404609680176,3.840299606323242,-0.4189853072166443
1729249992963000600,1.29400048828125,9.684844970703125,3.9169139862060547,-0.524330198764801
1729249992973000700,1.304000732421875,9.787796020507812,3.861847400665283,-0.5363011956214905
1729249992983000300,1.314000244140625,10.082283020019531,3.821146011352539,-0.5147533416748047
1729249992993000200,1.324000244140625,10.383952140808105,3.7229835987091064,-0.47405192255973816
1729249993002999800,1.333999755859375,10.769418716430664,3.6104562282562256,-0.48602294921875
1729249993013000000,1.344,11.265018463134766,3.4189200401306152,-0.37828385829925537
1729249993023000300,1.354000244140625,11.832444190979004,3.224989652633667,-0.24420857429504395
1729249993033000200,1.364000244140625,12.342409133911133,3.1100680828094482,-0.37828385829925537
1729249993043000300,1.374000244140625,12.4693021774292,3.028665065765381,-0.49320554733276367
1729249993053000700,1.384000732421875,12.366351127624512,2.920926094055176,-0.5937620401382446
1729249993063000600,1.39400048828125,12.306495666503906,2.985569477081299,-0.6919242739677429
1729249993073000700,1.404000732421875,11.990461349487305,3.028665065765381,-0.6799532771110535
1729249993083000600,1.41400048828125,11.808502197265625,3.1699230670928955,-0.6847416758537292
1729249993093000700,1.424000732421875,11.636119842529297,3.3255462646484375,-0.7852981686592102
1729249993103000300,1.434000244140625,11.276988983154297,3.442862033843994,-1.0558429956436157
1729249993113000200,1.444000244140625,10.9585599899292,3.406949043273926,-1.2425906658172607
1729249993123000000,1.454,10.434229850769043,3.0885202884674072,-1.1037269830703735
1729249993133000000,1.464,10.510845184326172,2.920926094055176,-1.2713210582733154
1729249993143000000,1.474,10.886734008789062,2.801215887069702,-1.4389152526855469
1729249993153000000,1.484,11.159673690795898,2.1930887699127197,-1.0654197931289673
1729249993163000000,1.494,11.741464614868164,1.6376339197158813,-1.036689281463623
1729249993173000000,1.504,12.023980140686035,1.359906554222107,-1.2258312702178955
1729249993183000300,1.514000244140625,11.87314510345459,1.1228805780410767,-1.4053963422775269
1729249993193000400,1.52400048828125,11.44218921661377,1.0869675874710083,-1.53707754611969
1729249993203000300,1.534000244140625,10.783783912658691,1.1683704853057861,-1.4221558570861816
1729249993213000400,1.54400048828125,9.914688110351562,1.3407529592514038,-1.2713210582733154
1729249993223000600,1.55400048828125,9.340080261230469,1.656787633895874,-1.2449848651885986
1729249993233000400,1.56400048828125,8.696040153503418,1.6663644313812256,-0.6655880808830261
1729249993243000800,1.574000732421875,8.89954662322998,2.367865562438965,-1.4245500564575195
1729249993253001000,1.5840009765625,8.856451034545898,2.676717519760132,-1.2306196689605713
1729249993263001300,1.59400146484375,8.734347343444824,2.296039342880249,-0.7038952708244324
1729249993273001200,1.604001220703125,8.985737800598145,2.099714994430542,-0.3663128614425659
1729249993283001300,1.61400146484375,9.402329444885254,2.118868589401245,-0.30885201692581177
1729249993293001200,1.624001220703125,9.672874450683594,2.322375535964966,-0.6416460275650024
1729249993303001600,1.634001708984375,9.368810653686523,1.745373010635376,-0.2298433631658554
1729249993313001500,1.64400146484375,9.208398818969727,1.5897499322891235,0.2346317619085312
1729249993323001300,1.65400146484375,9.055170059204102,1.436521053314209,0.1173158809542656
1729249993333001200,1.664001220703125,8.86363410949707,1.5322890281677246,0.2561795711517334
1729249993343001300,1.67400146484375,8.521263122558594,1.8746598958969116,0.24660277366638184
1729249993353001000,1.6840009765625,8.300996780395508,1.9991583824157715,0.47884035110473633
1729249993363000600,1.69400048828125,8.135796546936035,2.2577321529388428,0.8092401623725891
1729249993373000400,1.70400048828125,8.01848030090332,2.2673089504241943,0.8331822156906128
1729249993383000600,1.71400048828125,7.992144584655762,2.494758129119873,0.8259995579719543
1729249993393000400,1.72400048828125,8.035240173339844,2.7988216876983643,0.8020575642585754
1729249993403000600,1.73400048828125,8.229170799255371,3.0334534645080566,0.727837324142456
1729249993413000400,1.74400048828125,8.243535995483398,3.0789434909820557,0.6512228846549988
1729249993423000300,1.754000244140625,8.116642951965332,2.8850131034851074,0.7038952708244324
1729249993433000400,1.76400048828125,8.035240173339844,2.7461493015289307,0.6991068720817566
1729249993443000300,1.774000244140625,8.063970565795898,2.7533318996429443,0.6392518281936646
1729249993453000400,1.78400048828125,8.291419982910156,2.8874073028564453,0.3758896589279175
1729249993463000300,1.794000244140625,8.624214172363281,3.0861260890960693,0.5674257874488831
1729249993473000400,1.80400048828125,8.89954662322998,3.224989652633667,0.849941611289978
1729249993483000300,1.814000244140625,9.210793495178223,3.160346269607544,0.9600749015808105
1729249993493000400,1.82400048828125,9.687239646911621,3.023876667022705,1.0055646896362305
1729249993503000300,1.834000244140625,10.063129425048828,2.918531894683838,1.0319008827209473
1729249993513000200,1.844000244140625,10.565911293029785,3.0550012588500977,0.9026140570640564
1729249993523000300,1.854000244140625,10.656890869140625,3.205836057662964,0.7350199222564697
1729249993533000200,1.864000244140625,10.417470932006836,3.2393548488616943,0.6607996821403503
1729249993543000300,1.874000244140625,10.134955406188965,3.28963303565979,0.5219359993934631
1729249993553000700,1.884000732421875,9.826103210449219,3.4141316413879395,0.507570743560791
1729249993563000300,1.894000244140625,9.771036148071289,3.2992098331451416,0.5841852426528931
1729249993573000200,1.904000244140625,10.113407135009766,3.2776620388031006,0.49559974670410156
1729249993583000300,1.914000244140625,10.56112289428711,3.112462282180786,0.4668693244457245
1729249993593000200,1.924000244140625,11.126154899597168,2.7078421115875244,0.5578489899635315
1729249993603000300,1.934000244140625,11.935394287109375,2.3535003662109375,0.4692635238170624
1729249993613000200,1.944000244140625,12.450148582458496,2.123656988143921,0.272938996553421
1729249993623000300,1.954000244140625,12.701539039611816,1.9033904075622559,0.047884032130241394
1729249993633000200,1.964000244140625,12.634501457214355,1.5418659448623657,0.009576806798577309
1729249993643000300,1.974000244140625,12.521974563598633,1.278503656387329,0.17717093229293823
1729249993653000200,1.984000244140625,12.330437660217285,1.414973258972168,0.12449848651885986
1729249993663000600,1.99400048828125,12.172420501708984,1.6328455209732056,0.12210428714752197
1729249993673000700,2.004000732421875,12.033556938171387,1.8124107122421265,0.12928688526153564
1729249993683000600,2.01400048828125,11.786953926086426,1.9345149993896484,0.3519476354122162
1729249993693000700,2.024000732421875,11.700762748718262,1.821987509727478,0.8044517636299133
1729249993703000600,2.03400048828125,12.17720890045166,1.6735470294952393,0.8978256583213806
1729249993713000700,2.044000732421875,12.071864128112793,1.316810965538025,1.1276689767837524
1729249993723000600,2.05400048828125,12.012009620666504,0.9097966551780701,1.381454348564148
1729249993733000700,2.064000732421875,12.105382919311523,0.6488286852836609,1.3479355573654175
1729249993743000600,2.07400048828125,12.261006355285645,0.3878606855869293,1.1444283723831177
1729249993753000700,2.084000732421875,12.344802856445312,0.1412578970193863,1.0414776802062988
1729249993763000600,2.09400048828125,12.229881286621094,0.07661445438861847,1.0271124839782715
1729249993773000700,2.104000732421875,11.923423767089844,0.2346317619085312,0.9217676520347595
1729249993783000300,2.114000244140625,11.174038887023926,0.4620809257030487,0.8858546018600464
1729249993793000200,2.124000244140625,10.491691589355469,0.8379706144332886,0.950498104095459
1729249993803000300,2.134000244140625,9.919476509094238,1.2282254695892334,1.01753568649292
1729249993813000400,2.14400048828125,9.706393241882324,1.436521053314209,1.2018892765045166
1729249993823000600,2.15400048828125,9.636960983276367,2.185906171798706,1.3455413579940796
1729249993833000400,2.16400048828125,9.299378395080566,2.212242364883423,1.4915876388549805
1729249993843000000,2.174,8.839692115783691,2.3319525718688965,1.414973258972168
1729249993853000000,2.184,8.497321128845215,2.0638017654418945,1.2880805730819702
1729249993862999800,2.193999755859375,8.34648609161377,1.9129672050476074,1.072602391242981
1729249993872999400,2.20399951171875,8.140584945678711,1.7477672100067139,0.9145850539207458
1729249993882999600,2.21399951171875,8.142979621887207,1.8195933103561401,1.0534487962722778
1729249993892999400,2.22399951171875,8.174103736877441,2.070984363555908,1.0869675874710083
1729249993902999300,2.233999267578125,8.265083312988281,2.2218191623687744,0.9911994934082031
1729249993912999400,2.24399951171875,8.169315338134766,1.9249382019042969,0.49559974670410156
1729249993922999300,2.253999267578125,7.884405612945557,1.5107412338256836,-0.014365210197865963
1729249993932999400,2.26399951171875,7.503727436065674,1.3742717504501343,-0.4572925269603729
1729249993942999300,2.273999267578125,7.309797286987305,1.53707754611969,-0.7637503147125244
1729249993952999400,2.28399951171875,7.194875240325928,1.259350061416626,-1.2449848651885986
1729249993962999300,2.293999267578125,7.546823024749756,1.139639973640442,-0.8475474119186401
1729249993972999400,2.30399951171875,7.630620002746582,2.0925323963165283,0.05027823522686958
1729249993982999300,2.313999267578125,8.068758964538574,3.1004912853240967,0.5554547905921936
1729249993992999400,2.32399951171875,8.32254409790039,3.1531636714935303,1.194706678390503
1729249994002999300,2.333999267578125,8.509291648864746,3.0190882682800293,1.335964560508728
1729249994012999400,2.34399951171875,8.698433876037598,3.3279404640197754,1.3862427473068237
1729249994022999300,2.353999267578125,9.117419242858887,3.907337188720703,1.0749965906143188
1729249994032999400,2.36399951171875,9.10066032409668,3.5051112174987793,0.8259995579719543
1729249994042999300,2.373999267578125,9.174880027770996,2.983175277709961,0.6631938815116882
1729249994052999700,2.383999755859375,9.419088363647461,3.1747114658355713,0.13168109953403473
1729249994062999800,2.393999755859375,9.359233856201172,3.2776620388031006,-0.14604631066322327
1729249994072999700,2.403999755859375,9.13657283782959,3.179499864578247,-0.28730419278144836
1729249994082999800,2.413999755859375,9.244312286376953,3.292027235031128,-0.5003881454467773
1729249994092999700,2.423999755859375,9.364022254943848,3.315969467163086,-0.5793967843055725
1729249994102999600,2.43399951171875,9.58907699584961,3.4979286193847656,-0.6751648783683777
1729249994112999400,2.44399951171875,9.862015724182129,3.648763418197632,-0.6033388376235962
1729249994122999300,2.453999267578125,10.204386711120605,3.754108190536499,-0.45489832758903503
1729249994132999400,2.46399951171875,10.71674633026123,3.88818359375,-0.26336219906806946
1729249994142999300,2.473999267578125,11.26023006439209,3.8594532012939453,-0.13407529890537262
1729249994152999400,2.48399951171875,11.784560203552246,3.6846764087677,-0.047884032130241394
1729249994162999300,2.493999267578125,12.136507987976074,3.35667085647583,-0.0071826050989329815
1729249994172999700,2.503999755859375,12.397475242614746,2.985569477081299,-0.090979665517807
1729249994182999800,2.513999755859375,12.59380054473877,2.8586769104003906,-0.40222588181495667
1729249994192999700,2.523999755859375,12.742240905761719,2.7293899059295654,-0.6344634294509888
1729249994202999800,2.533999755859375,12.866739273071289,2.719813108444214,-0.7661445140838623
1729249994213000000,2.544,12.78773021697998,2.6815059185028076,-0.7805097699165344
1729249994222999800,2.553999755859375,12.6273193359375,2.585737943649292,-0.7996633648872375
1729249994233000000,2.564,12.550704956054688,2.564189910888672,-0.9600749015808105
1729249994242999800,2.573999755859375,12.56985855102539,2.604891538619995,-1.1013327836990356
1729249994253000000,2.584,12.510003089904785,2.5761611461639404,-1.2282254695892334
1729249994262999800,2.593999755859375,12.098200798034668,2.4899697303771973,-1.3048399686813354
1729249994273000000,2.604,11.774983406066895,2.3056161403656006,-1.039083480834961
1729249994282999800,2.613999755859375,11.832444190979004,2.1045033931732178,-0.7445967197418213
1729249994293000000,2.624,12.158055305480957,2.030282974243164,-0.5650315880775452
1729249994303000000,2.634,12.165238380432129,1.7573440074920654,-0.363918662071228
1729249994313000200,2.644000244140625,12.23227596282959,1.6687586307525635,-0.4596867263317108
1729249994323000600,2.65400048828125,11.849203109741211,1.5107412338256836,-0.5961562395095825
1729249994333000700,2.664000732421875,11.126154899597168,1.4389152526855469,-0.6488286852836609
1729249994343000600,2.67400048828125,10.704774856567383,1.6184803247451782,-0.6871358752250671
1729249994353000200,2.684000244140625,10.158897399902344,1.5729905366897583,-0.3232172429561615
1729249994363000300,2.694000244140625,9.945813179016113,1.7166426181793213,-0.3016694188117981
1729249994373000200,2.704000244140625,9.948206901550293,1.7310078144073486,-0.1173158809542656
1729249994383000600,2.71400048828125,9.76864242553711,1.5538369417190552,0.019153613597154617
1729249994393000700,2.724000732421875,9.512462615966797,1.6160861253738403,-0.05506663769483566
1729249994403000600,2.73400048828125,9.239523887634277,1.6208745241165161,0.12449848651885986
1729249994413000700,2.744000732421875,8.861239433288574,1.414973258972168,0.4213795065879822
1729249994423000600,2.75400048828125,8.698433876037598,1.3910311460494995,0.6129156351089478
1729249994433000700,2.764000732421875,8.760683059692383,1.4508862495422363,0.9289502501487732
1729249994443000600,2.77400048828125,8.691251754760742,1.3048399686813354,1.2689268589019775
1729249994453000700,2.784000732421875,8.98813247680664,1.3503297567367554,1.3479355573654175
1729249994463000600,2.79400048828125,9.028834342956543,1.235408067703247,1.4724340438842773
1729249994473000700,2.804000732421875,9.04319953918457,1.1540051698684692,1.3048399686813354
1729249994483000600,2.81400048828125,8.767866134643555,1.0845733880996704,1.0821791887283325
1729249994493000700,2.824000732421875,8.382399559020996,1.0821791887283325,0.8786720037460327
1729249994503000300,2.834000244140625,7.951443195343018,1.2737152576446533,0.6871358752250671
1729249994513000200,2.844000244140625,7.75751256942749,1.577778935432434,0.6871358752250671
1729249994523000300,2.854000244140625,7.585130214691162,1.7286136150360107,0.8595184087753296
1729249994533000200,2.864000244140625,7.551611423492432,1.9728221893310547,0.849941611289978
1729249994543000300,2.874000244140625,7.6641387939453125,2.298433542251587,0.828393816947937
1729249994553000700,2.884000732421875,7.671321392059326,2.403778553009033,0.9648633003234863
1729249994563000300,2.894000244140625,7.635408401489258,2.4899697303771973,0.9672574996948242
1729249994573000200,2.904000244140625,7.671321392059326,2.741360902786255,0.7829039692878723
1729249994583000300,2.914000244140625,7.683292388916016,2.7940332889556885,0.9433154463768005
1729249994593000200,2.924000244140625,7.668927192687988,2.8562827110290527,0.9672574996948242
1729249994602999800,2.933999755859375,7.786243438720703,2.913743495941162,1.1037269830703735
1729249994613000000,2.944,8.138191223144531,2.75812029838562,1.0055646896362305
1729249994622999800,2.953999755859375,8.461407661437988,2.47560453414917,0.8547300100326538
1729249994633000000,2.964,8.849268913269043,2.250549554824829,0.8475474119186401
1729249994642999800,2.973999755859375,9.138967514038086,2.099714994430542,0.9241618514060974
1729249994653000000,2.984,9.342473983764648,1.965639591217041,0.9145850539207458
1729249994662999800,2.993999755859375,9.371204376220703,1.8531121015548706,0.9792284965515137
1729249994673000000,3.004,9.330503463745117,1.920149803161621,1.072602391242981
1729249994682999800,3.013999755859375,9.361627578735352,2.1475989818573,1.0031704902648926
1729249994693000000,3.024,9.38556957244873,2.205059766769409,1.0103530883789062
1729249994702999800,3.033999755859375,9.469367027282715,2.22660756111145,0.828393816947937
1729249994713000000,3.044,9.596260070800781,2.248155355453491,0.5937620401382446
1729249994722999800,3.053999755859375,9.687239646911621,2.2002713680267334,0.5602431893348694
1729249994733000000,3.064,9.828496932983398,2.0685901641845703,0.569819986820221
1729249994743000300,3.074000244140625,10.28818416595459,1.843535304069519,0.6272808313369751
1729249994753000200,3.084000244140625,10.824484825134277,1.5418659448623657,0.7661445140838623
1729249994763000300,3.094000244140625,11.432612419128418,1.3120225667953491,0.8882488012313843
1729249994773000200,3.104000244140625,11.96173095703125,1.091755986213684,1.1252747774124146
1729249994783000300,3.114000244140625,11.947365760803223,0.6392518281936646,1.1683704853057861
1729249994793000200,3.124000244140625,11.430217742919922,0.1412578970193863,1.1085153818130493
1729249994803000300,3.134000244140625,11.68879222869873,0.4596867263317108,0.871489405632019
1729249994813000200,3.144000244140625,11.777377128601074,0.6919242739677429,0.9576807022094727
1729249994823000300,3.154000244140625,12.19875717163086,1.0342950820922852,1.1540051698684692
1729249994833000200,3.164000244140625,12.533945083618164,1.3838485479354858,1.4508862495422363
1729249994843000300,3.174000244140625,12.708722114562988,1.4437036514282227,1.6831238269805908
1729249994853000000,3.184,12.893074989318848,1.1516109704971313,1.9297266006469727
1729249994862999800,3.193999755859375,12.976872444152832,0.47405192255973816,1.9752163887023926
1729249994873000000,3.204,13.245022773742676,-0.08858546614646912,1.968033790588379
1729249994882999800,3.213999755859375,13.228263854980469,-0.5793967843055725,1.9704279899597168
1729249994893000000,3.224,12.75421142578125,-1.161187767982483,1.8626888990402222
1729249994902999800,3.233999755859375,12.26579475402832,-1.702277421951294,1.5849615335464478
1729249994913000000,3.244,11.849203109741211,-2.1308395862579346,1.1994950771331787
1729249994922999600,3.25399951171875,11.861174583435059,-2.38462495803833,0.828393816947937
1729249994932999400,3.26399951171875,12.1101713180542,-2.3726539611816406,0.646434485912323
1729249994942999600,3.27399951171875,12.055105209350586,-2.231395959854126,0.689530074596405
1729249994952999400,3.28399951171875,12.603377342224121,-1.7597382068634033,0.8643068075180054
1729249994962999600,3.29399951171875,13.120524406433105,-1.3886369466781616,0.9385270476341248
1729249994972999200,3.303999267578125,12.383110046386719,-1.194706678390503,1.1779472827911377
1729249994982999000,3.3139990234375,11.396698951721191,-1.0845733880996704,1.3431471586227417
1729249994992999200,3.323999267578125,10.802937507629395,-0.9409212470054626,1.1827356815338135
1729249995002999000,3.3339990234375,10.008062362670898,-0.9313444495201111,1.0031704902648926
1729249995012999200,3.343999267578125,9.160514831542969,-0.8858546018600464,0.8834604024887085
1729249995022999000,3.3539990234375,8.262689590454102,-0.8667010068893433,0.8092401623725891
1729249995032999200,3.363999267578125,7.872434616088867,-0.44771572947502136,0.727837324142456
1729249995042999000,3.3739990234375,7.5994954109191895,-0.1173158809542656,0.7206547260284424
1729249995052999400,3.38399951171875,6.593930721282959,-0.38067805767059326,0.7972691655158997
1729249995062999600,3.39399951171875,6.558017730712891,0.014365210197865963,0.727837324142456
1729249995072999400,3.40399951171875,6.766313076019287,0.5219359993934631,0.6488286852836609
1729249995082999000,3.4139990234375,7.1805100440979,0.8619126081466675,0.5841852426528931
1729249995095759000,3.426759033203125,7.75751256942749,1.1037269830703735,0.47405192255973816
1729249995105759500,3.436759521484375,8.152556419372559,1.0630255937576294,0.24420857429504395
1729249995115759600,3.446759521484375,8.336909294128418,0.933738648891449,-0.028730420395731926
1729249995125759500,3.456759521484375,8.336909294128418,0.7829039692878723,-0.2801215946674347
1729249995135759600,3.466759521484375,7.862857818603516,0.4836287498474121,-0.2537853717803955
1729249995145759500,3.476759521484375,7.582736015319824,0.5363011956214905,-0.12689268589019775
1729249995155759600,3.486759521484375,7.884405612945557,0.9313444495201111,0.019153613597154617
1729249995165759500,3.496759521484375,8.16452693939209,1.1204863786697388,0.11252748221158981
1729249995175759600,3.506759521484375,8.028057098388672,0.7422025203704834,0.28969839215278625
1729249995185760000,3.516760009765625,8.638579368591309,0.6440402865409851,0.3471592366695404
1729249995195759900,3.526759765625,9.201216697692871,0.4596867263317108,0.2082955539226532
1729249995205760000,3.536760009765625,9.735123634338379,0.22505496442317963,0.07182604819536209
1729249995215760000,3.546759765625,10.25466537475586,0.15083470940589905,0.023942016065120697
1729249995225760000,3.556760009765625,10.479720115661621,-0.004788403399288654,0.08619125932455063
1729249995235759900,3.566759765625,10.6616792678833,-0.13168109953403473,0.014365210197865963
1729249995245760300,3.57676025390625,10.410287857055664,-0.19153612852096558,0.090979665517807
1729249995255760400,3.586760498046875,11.049540519714355,-0.42377370595932007,-0.2801215946674347
1729249995265760300,3.59676025390625,11.32966136932373,-0.31364041566848755,-0.43095630407333374
1729249995275760600,3.6067607421875,11.492467880249023,-0.21547815203666687,-0.14365209639072418
1729249995285760300,3.61676025390625,11.834837913513184,-0.19632454216480255,-0.5434837937355042
1729249995295760400,3.626760498046875,12.038345336914062,-0.06224924325942993,-0.7086837291717529
1729249995305760800,3.6367607421875,12.237064361572266,-0.11971008777618408,-0.5386953949928284
1729249995315760600,3.6467607421875,12.560281753540039,-0.40222588181495667,-1.039083480834961
1729249995325760800,3.6567607421875,12.694356918334961,-0.6823474764823914,-1.0989385843276978
1729249995335760600,3.6667607421875,12.256217956542969,-0.6416460275650024,-0.7445967197418213
1729249995345760500,3.676760498046875,12.4693021774292,-0.7086837291717529,-0.272938996553421
1729249995355760000,3.686760009765625,12.622530937194824,-1.0965443849563599,-0.6392518281936646
1729249995365760000,3.696760009765625,12.926593780517578,-1.5849615335464478,-1.2066776752471924
1729249995375760100,3.706760009765625,12.59619426727295,-1.2521674633026123,-1.2449848651885986
1729249995385760500,3.716760498046875,12.747029304504395,-0.9600749015808105,-1.1037269830703735
1729249995395760400,3.726760498046875,12.873921394348145,-0.5674257874488831,-1.0558429956436157
1729249995405760000,3.736760009765625,12.84279727935791,-0.17238251864910126,-1.0534487962722778
1729249995415760100,3.746760009765625,12.59619426727295,-0.023942016065120697,-1.048660397529602
1729249995425760000,3.756760009765625,12.512397766113281,-0.014365210197865963,-1.036689281463623
1729249995435760000,3.766760009765625,12.105382919311523,-0.524330198764801,-0.9026140570640564
1729249995445760000,3.776760009765625,11.916240692138672,-1.1899182796478271,-0.7996633648872375
1729249995455760100,3.786760009765625,12.270583152770996,-1.8626888990402222,-0.7876923680305481
1729249995465760000,3.796760009765625,12.768576622009277,-2.497152328491211,-0.9097966551780701
1729249995475760000,3.806760009765625,12.799701690673828,-3.1052796840667725,-1.0199298858642578
1729249995485760000,3.816760009765625,12.646472930908203,-3.533841609954834,-1.1252747774124146
1729249995495760100,3.826760009765625,12.002432823181152,-3.4739866256713867,-1.1994950771331787
1729249995505760000,3.836760009765625,11.540351867675781,-3.0885202884674072,-1.0438719987869263
1729249995515760000,3.846760009765625,11.056722640991211,-2.6671407222747803,-0.9385270476341248
1729249995525760000,3.856760009765625,10.635343551635742,-2.3535003662109375,-1.0438719987869263
1729249995535760100,3.866760009765625,9.967360496520996,-1.7980455160140991,-0.9840168952941895
1729249995545760000,3.876760009765625,9.74470043182373,-1.2306196689605713,-0.7565677165985107
1729249995555760400,3.886760498046875,9.500492095947266,-0.8643068075180054,-0.5291185975074768
1729249995565760500,3.896760498046875,9.296984672546387,-0.8164227604866028,-0.3758896589279175
1729249995575760400,3.906760498046875,9.325715065002441,-0.8307880163192749,-0.3495534360408783
1729249995585760500,3.916760498046875,9.275436401367188,-0.8762778043746948,-0.33279404044151306
1729249995595760400,3.926760498046875,9.13657283782959,-0.8810662031173706,-0.2968810200691223
1729249995605760000,3.936760009765625,8.980949401855469,-0.9145850539207458,-0.38546648621559143
1729249995615760100,3.946760009765625,8.736741065979004,-0.8906430602073669,-0.5578489899635315
1729249995625760000,3.956760009765625,8.478167533874512,-0.7829039692878723,-0.6655880808830261
1729249995635760000,3.966760009765625,8.418312072753906,-0.6943184733390808,-0.629675030708313
1729249995645760000,3.976760009765625,8.360851287841797,-0.5554547905921936,-0.6129156351089478
1729249995655760100,3.986760009765625,8.296208381652832,-0.4213795065879822,-0.5051765441894531
1729249995665760500,3.996760498046875,8.269871711730957,-0.363918662071228,-0.31842881441116333
1729249995675760400,4.006760498046875,8.430283546447754,-0.3519476354122162,-0.1843535304069519
1729249995685760500,4.016760498046875,8.693645477294922,-0.2825157940387726,0.0454898327589035
1729249995695760400,4.026760498046875,8.961795806884766,-0.19632454216480255,0.22026655077934265
1729249995705760500,4.036760498046875,9.062353134155273,-0.1149216815829277,0.40701428055763245
1729249995715760400,4.046760498046875,9.1940336227417,-0.05985504388809204,0.48602294921875
1729249995725760500,4.056760498046875,9.184456825256348,-0.05985504388809204,0.31603461503982544
1729249995735760400,4.066760498046875,9.086295127868652,-0.043095629662275314,0.11252748221158981
1729249995745760500,4.076760498046875,9.047987937927246,0.05267243832349777,-0.05746084079146385
1729249995755760400,4.086760498046875,9.148544311523438,0.22026655077934265,-0.08858546614646912
1729249995765760500,4.096760498046875,9.244312286376953,0.30885201692581177,0.0071826050989329815
1729249995775760400,4.106760498046875,9.313743591308594,0.31842881441116333,0.090979665517807
1729249995785760000,4.116760009765625,9.44303035736084,0.28969839215278625,0.16519992053508759
1729249995795760000,4.126760009765625,9.44303035736084,0.2585737705230713,0.2106897532939911
1729249995805760300,4.13676025390625,9.433453559875488,0.22744916379451752,0.33039984107017517
1729249995815760100,4.146760009765625,9.457395553588867,0.19632454216480255,0.4644751250743866
1729249995834760200,4.16576025390625,9.62020206451416,0.18914192914962769,0.7398083209991455
1729249995844754700,4.175754638671875,9.833285331726074,0.2346317619085312,0.8906430602073669
1729249995854751000,4.1857509765625,10.302549362182617,0.19393034279346466,0.9361328482627869
1729249995864748300,4.195748291015625,10.802937507629395,0.002394201699644327,0.768538773059845
1729249995874746000,4.20574609375,11.123760223388672,-0.31124621629714966,0.6224924325942993
1729249995884744200,4.215744140625,11.375151634216309,-0.7924807667732239,0.5530605912208557
1729249995894742800,4.22574267578125,11.492467880249023,-1.161187767982483,0.4884171485900879
1729249995904742700,4.23574267578125,11.609783172607422,-1.3934253454208374,0.3998316824436188
1729249995914742800,4.24574267578125,11.638513565063477,-1.4197616577148438,0.4429273009300232
1729249995924741600,4.25574169921875,11.56668758392334,-1.278503656387329,0.5746083855628967
1729249995934740500,4.265740478515625,11.461342811584473,-1.1492167711257935,0.790086567401886
1729249995944739600,4.275739501953125,11.4757080078125,-0.8619126081466675,1.0223240852355957
1729249995954739000,4.285739013671875,11.664850234985352,-0.5267243981361389,1.1994950771331787
1729249995964738800,4.29573876953125,11.827655792236328,-0.2561795711517334,1.3455413579940796
1729249995974738200,4.30573828125,11.90427017211914,-0.06464344263076782,1.558625340461731
1729249995984737300,4.3157373046875,11.664850234985352,-0.090979665517807,1.6759412288665771
1729249995994736600,4.325736572265625,11.492467880249023,-0.3256114423274994,1.800439715385437
1729249996004736300,4.335736328125,11.535563468933105,-0.7805097699165344,2.0254945755004883
1729249996014735600,4.345735595703125,11.789348602294922,-1.4772224426269531,2.499546527862549
1729249996024735500,4.355735595703125,12.53633975982666,-2.3295583724975586,2.779668092727661
1729249996034735000,4.365735107421875,12.847585678100586,-3.308786630630493,2.736572504043579
1729249996044734500,4.375734375,13.000814437866211,-4.0078935623168945,2.4612393379211426
1729249996054734000,4.385734130859375,13.019968032836914,-4.321534156799316,2.1571757793426514
1729249996064733400,4.3957333984375,12.747029304504395,-4.347870349884033,1.9536685943603516
1729249996074733000,4.405733154296875,12.167632102966309,-4.175487995147705,1.9273324012756348
1729249996084732700,4.415732666015625,11.456554412841797,-3.6966474056243896,2.1116859912872314
1729249996094732300,4.425732177734375,10.910676002502441,-2.918531894683838,2.2673089504241943
1729249996104732000,4.43573193359375,10.41507625579834,-2.1811177730560303,2.3127987384796143
1729249996114731500,4.4457314453125,9.778219223022461,-1.5945383310317993,2.3367409706115723
1729249996124731100,4.455731201171875,9.10305404663086,-1.094150185585022,2.2864625453948975
1729249996134731300,4.465731201171875,8.626607894897461,-0.7182605266571045,2.166752576828003
1729249996144731100,4.475731201171875,8.394370079040527,-0.4668693244457245,2.0183119773864746
1729249996154731300,4.485731201171875,8.28663158416748,-0.31364041566848755,1.8171991109848022
1729249996164731400,4.4957314453125,8.243535995483398,-0.22505496442317963,1.6639702320098877
1729249996174731500,4.5057314453125,8.229170799255371,-0.15801730751991272,1.50355863571167
1729249996184731400,4.5157314453125,8.142979621887207,0,1.3934253454208374
1729249996194731500,4.5257314453125,7.939472198486328,0.44532153010368347,1.3287819623947144
1729249996204731100,4.535731201171875,7.558794021606445,0.44532153010368347,1.357512354850769
1729249996214730800,4.545730712890625,7.498939037322998,0.5410895943641663,1.434126853942871
1729249996224731000,4.55573095703125,7.563582420349121,0.9409212470054626,1.1635819673538208
1729249996234730800,4.565730712890625,7.482179641723633,1.0582371950149536,0.7589619159698486
1729249996244731000,4.57573095703125,7.448660850524902,1.2856862545013428,0.7422025203704834
1729249996254730800,4.585730712890625,7.54203462600708,1.580173134803772,0.6703764796257019
1729249996264730400,4.59573046875,7.611466407775879,1.8100165128707886,0.6512228846549988
1729249996274730800,4.605730712890625,7.805397033691406,1.9632453918457031,0.8140285611152649
1729249996284731100,4.615731201171875,8.013691902160645,2.073378562927246,1.0031704902648926
1729249996294731300,4.625731201171875,8.284236907958984,1.9369091987609863,1.170764684677124
1729249996304731100,4.635731201171875,8.59069538116455,1.845929503440857,1.2042834758758545
1729249996314731300,4.645731201171875,8.801384925842285,1.7070658206939697,1.1851298809051514
1729249996324731000,4.65573095703125,8.959402084350586,1.5634137392044067,1.0989385843276978
1729249996334730800,4.665730712890625,9.126996040344238,1.4628572463989258,1.0319008827209473
1729249996344731100,4.675731201171875,9.31853199005127,1.37906014919281,0.9481038451194763
1729249996354731300,4.685731201171875,9.493309020996094,1.2832920551300049,0.8403648138046265
1729249996364731100,4.695731201171875,9.6896333694458,1.216254472732544,0.7613561153411865
1729249996374731300,4.705731201171875,9.972148895263672,1.1875240802764893,0.7158663272857666
1729249996384731600,4.715731689453125,10.245088577270508,1.1779472827911377,0.6560112833976746
1729249996394731500,4.7257314453125,10.491691589355469,1.2066776752471924,0.545877993106842
1729249996404732000,4.73573193359375,10.695198059082031,1.1755530834197998,0.44771572947502136
1729249996414732300,4.745732177734375,10.829273223876953,1.0749965906143188,0.4381389021873474
1729249996424732200,4.755732177734375,11.051934242248535,1.0893617868423462,0.5913678407669067
1729249996434732300,4.765732177734375,11.430217742919922,1.0534487962722778,0.7805097699165344
1729249996444732200,4.775732177734375,11.8132905960083,0.9576807022094727,0.8810662031173706
1729249996454732300,4.785732177734375,12.136507987976074,0.7445967197418213,0.9457096457481384
1729249996464732200,4.795732177734375,12.488455772399902,0.5530605912208557,0.9002198576927185
1729249996474732300,4.805732177734375,12.670414924621582,0.5793967843055725,0.8403648138046265
1729249996484732200,4.815732177734375,12.749423027038574,0.28730419278144836,0.7948749661445618
1729249996494732300,4.825732177734375,12.9649019241333,-0.05027823522686958,0.5410895943641663
1729249996504732200,4.835732177734375,13.161226272583008,-0.002394201699644327,0.31842881441116333
1729249996514732300,4.845732177734375,13.223475456237793,0.14844051003456116,0.21547815203666687
1729249996524732700,4.855732666015625,13.20671558380127,0.40222588181495667,0.11971008777618408
1729249996534732500,4.865732666015625,13.060669898986816,0.6105214357376099,-0.0454898327589035
1729249996544732700,4.875732666015625,12.670414924621582,0.7613561153411865,-0.1628057211637497
1729249996554732500,4.885732666015625,12.335226058959961,0.7110779285430908,-0.17477671802043915
1729249996564732700,4.895732666015625,12.2897367477417,0.31603461503982544,-0.004788403399288654
1729249996574732300,4.905732177734375,12.632107734680176,-0.30885201692581177,0.33518823981285095
1729249996584732000,4.91573193359375,13.089400291442871,-1.0845733880996704,0.5003881454467773
1729249996594731800,4.925731689453125,13.29769515991211,-1.7621324062347412,0.44771572947502136
1729249996604732000,4.93573193359375,13.245022773742676,-2.1954829692840576,0.21308395266532898
1729249996614731800,4.945731689453125,12.730269432067871,-2.585737943649292,-0.06464344263076782
1729249996624732200,4.955732177734375,12.148478507995605,-2.808398485183716,-0.363918662071228
1729249996634732300,4.965732177734375,11.516409873962402,-2.4372973442077637,-0.6344634294509888
1729249996644732000,4.97573193359375,10.874763488769531,-2.0685901641845703,-0.7781155705451965
1729249996654731800,4.985731689453125,10.37916374206543,-1.5275006294250488,-0.790086567401886
1729249996664732000,4.99573193359375,9.883563995361328,-1.01753568649292,-0.751779317855835
1729249996674732000,5.00573193359375,9.354445457458496,-0.6105214357376099,-0.6512228846549988
1729249996684731600,5.015731689453125,9.002497673034668,-0.3734954595565796,-0.5674257874488831
1729249996694731500,5.0257314453125,8.767866134643555,-0.2322375625371933,-0.3758896589279175
1729249996704731100,5.035731201171875,8.686463356018066,-0.17717093229293823,-0.12689268589019775
1729249996714730800,5.045730712890625,8.636184692382812,-0.16519992053508759,0.12449848651885986
1729249996724731000,5.05573095703125,8.68406867980957,-0.17477671802043915,0.3064578175544739
1729249996734730800,5.065730712890625,8.669703483581543,-0.2561795711517334,0.3687070608139038
1729249996744731000,5.07573095703125,8.633790969848633,-0.24181437492370605,0.38067805767059326
1729249996754730800,5.085730712890625,8.602665901184082,-0.17477671802043915,0.47165772318840027
1729249996764731000,5.09573095703125,8.626607894897461,-0.12928688526153564,0.5626373887062073
1729249996774731300,5.105731201171875,8.633790969848633,-0.0933738648891449,0.5793967843055725
1729249996784731100,5.115731201171875,8.626607894897461,-0.05506663769483566,0.5889736413955688
1729249996794731300,5.125731201171875,8.59308910369873,0.05506663769483566,0.5961562395095825
1729249996804731100,5.135731201171875,8.59308910369873,0.19632454216480255,0.6033388376235962
1729249996814731300,5.145731201171875,8.59069538116455,0.26336219906806946,0.6057330369949341
1729249996824731100,5.155731201171875,8.605060577392578,0.3256114423274994,0.6009446382522583
1729249996834731300,5.165731201171875,8.612242698669434,0.3687070608139038,0.6009446382522583
1729249996844731100,5.175731201171875,8.640973091125488,0.40462008118629456,0.6153098344802856
1729249996854731300,5.185731201171875,8.712799072265625,0.42616790533065796,0.5530605912208557
1729249996864731100,5.195731201171875,8.760683059692383,0.47884035110473633,0.5003881454467773
1729249996874731300,5.205731201171875,8.789413452148438,0.5219359993934631,0.5506663918495178
1729249996884731600,5.215731689453125,8.79659652709961,0.5554547905921936,0.6224924325942993
1729249996894731500,5.2257314453125,8.86363410949707,0.6057330369949341,0.6775590777397156
1729249996904731600,5.235731689453125,8.945036888122559,0.5722141861915588,0.706289529800415
1729249996914732000,5.24573193359375,9.038411140441895,0.5578489899635315,0.7565677165985107
1729249996924731600,5.255731689453125,9.19163990020752,0.5339069962501526,0.8930372595787048
1729249996934731500,5.2657314453125,9.359233856201172,0.507570743560791,1.0965443849563599
1729249996944731600,5.275731689453125,9.555558204650879,0.5147533416748047,1.1779472827911377
1729249996954731500,5.2857314453125,9.766247749328613,0.5363011956214905,1.1180921792984009
1729249996964731600,5.295731689453125,9.921871185302734,0.507570743560791,1.0558429956436157
1729249996974731500,5.3057314453125,10.094253540039062,0.5363011956214905,0.9911994934082031
1729249996984731600,5.315731689453125,10.38155746459961,0.4429273009300232,1.091755986213684
1729249996994731500,5.3257314453125,10.704774856567383,0.23702596127986908,1.213860273361206
1729249997004731600,5.335731689453125,11.035175323486328,-0.028730420395731926,1.2952631711959839
1729249997014731500,5.3457314453125,11.391910552978516,-0.26336219906806946,1.314416766166687
1729249997024731600,5.355731689453125,11.717522621154785,-0.4213795065879822,1.2713210582733154
1729249997034731500,5.3657314453125,11.856386184692383,-0.4668693244457245,1.2976573705673218
1729249997044731600,5.375731689453125,11.794137001037598,-0.4620809257030487,1.4077905416488647
1729249997054731500,5.3857314453125,11.791742324829102,-0.38546648621559143,1.5538369417190552
1729249997064731600,5.395731689453125,12.000038146972656,-0.272938996553421,1.5658079385757446
1729249997074731300,5.405731201171875,12.17481517791748,-0.15562310814857483,1.5490485429763794
1729249997084731400,5.4157314453125,12.244246482849121,-0.10055647045373917,1.501164436340332
1729249997094731300,5.425731201171875,12.239458084106445,-0.14844051003456116,1.4700398445129395
1729249997104731600,5.435731689453125,12.131719589233398,-0.2346317619085312,1.5634137392044067
1729249997114731500,5.4457314453125,12.079047203063965,-0.545877993106842,1.7932571172714233
1729249997124731600,5.455731689453125,12.2681884765625,-1.05105459690094,1.9632453918457031
1729249997134731500,5.4657314453125,12.581829071044922,-1.7142484188079834,2.0829553604125977
1729249997144731600,5.475731689453125,12.782941818237305,-2.2146365642547607,2.190694570541382
1729249997154731500,5.4857314453125,12.931382179260254,-2.7485435009002686,2.166752576828003
1729249997164731600,5.495731689453125,12.866739273071289,-3.203441858291626,1.9512743949890137
1729249997174731800,5.505731689453125,12.428600311279297,-3.4835634231567383,1.6136919260025024
1729249997184731600,5.515731689453125,11.808502197265625,-3.4380736351013184,1.4197616577148438
1729249997194731800,5.525731689453125,11.274595260620117,-2.959233283996582,1.381454348564148
1729249997204731600,5.535731689453125,10.781389236450195,-2.298433542251587,1.5442601442337036
1729249997214731300,5.545731201171875,10.257059097290039,-1.699883222579956,1.7166426181793213
1729249997224731400,5.5557314453125,9.703998565673828,-1.192312479019165,1.8483237028121948
1729249997234731300,5.565731201171875,9.208398818969727,-0.7493851184844971,1.9536685943603516
1729249997244731600,5.575731689453125,8.712799072265625,-0.31124621629714966,2.030282974243164
1729249997254731800,5.585731689453125,8.37761116027832,-0.011971008032560349,2.0614075660705566
1729249997264731600,5.595731689453125,8.152556419372559,0.21308395266532898,2.0183119773864746
1729249997274732000,5.60573193359375,7.941866397857666,0.38067805767059326,1.9393033981323242
1729249997284732200,5.615732177734375,7.735964775085449,0.4165911078453064,1.7836803197860718
1729249997294732000,5.62573193359375,7.594707012176514,0.4884171485900879,1.534683346748352
1729249997304732200,5.635732177734375,7.479785442352295,0.6129156351089478,1.316810965538025
1729249997314732000,5.64573193359375,7.434295654296875,0.7469909191131592,1.1420341730117798
1729249997324732000,5.65573193359375,7.3361334800720215,0.8403648138046265,0.9576807022094727
1729249997334732000,5.66573193359375,7.297826290130615,0.9576807022094727,0.828393816947937
1729249997344732400,5.675732421875,7.312191486358643,1.0845733880996704,0.7158663272857666
1729249997354732300,5.685732177734375,7.415142059326172,1.2042834758758545,0.629675030708313
1729249997364732000,5.69573193359375,7.568370819091797,1.3048399686813354,0.6033388376235962
1729249997374732000,5.70573193359375,7.740753173828125,1.3694833517074585,0.5793967843055725
1729249997384732000,5.71573193359375,7.889194011688232,1.4245500564575195,0.5674257874488831
1729249997394732000,5.72573193359375,8.090307235717773,1.4245500564575195,0.5674257874488831
1729249997404731600,5.735731689453125,8.25311279296875,1.3479355573654175,0.6488286852836609
1729249997414732000,5.74573193359375,8.490138053894043,1.2425906658172607,0.6847416758537292
1729249997424732000,5.75573193359375,8.870816230773926,1.1971008777618408,0.7326257228851318
1729249997434732000,5.76573193359375,9.155726432800293,1.1013327836990356,0.7565677165985107
1729249997444732000,5.77573193359375,9.452607154846191,0.9864110946655273,0.7374141216278076
1729249997454732000,5.78573193359375,9.696816444396973,0.9576807022094727,0.7733271718025208
1729249997464732000,5.79573193359375,10.01524543762207,0.9217676520347595,0.8882488012313843
1729249997474731800,5.805731689453125,10.328885078430176,0.7230489253997803,1.015141487121582
1729249997484732000,5.81573193359375,10.632948875427246,0.5602431893348694,1.0749965906143188
1729249997494731800,5.825731689453125,10.948983192443848,0.49320554733276367,0.9744400978088379
1729249997504732000,5.83573193359375,11.257835388183594,0.545877993106842,0.8020575642585754
1729249997514732000,5.84573193359375,11.38472843170166,0.5841852426528931,0.667982280254364
1729249997524732200,5.855732177734375,11.492467880249023,0.5219359993934631,0.44771572947502136
1729249997534732000,5.86573193359375,11.736676216125488,0.5482721924781799,0.26096799969673157
1729249997544731600,5.875731689453125,11.952154159545898,0.7206547260284424,0.24420857429504395
1729249997554731800,5.885731689453125,12.043133735656738,0.8547300100326538,0.40462008118629456
1729249997564731600,5.895731689453125,12.129324913024902,0.8858546018600464,0.5147533416748047
1729249997574731300,5.905731201171875,12.225092887878418,0.8906430602073669,0.5889736413955688
1729249997584731400,5.9157314453125,12.452542304992676,0.8738836050033569,0.6631938815116882
1729249997594731300,5.925731201171875,12.81167221069336,0.9002198576927185,0.6823474764823914
1729249997604731600,5.935731689453125,12.962507247924805,0.9002198576927185,0.7541735172271729
1729249997614731800,5.945731689453125,12.969690322875977,0.8188169598579407,0.7637503147125244
1729249997624732200,5.955732177734375,12.972084045410156,0.7924807667732239,0.6727706789970398
1729249997634732000,5.96573193359375,12.99123764038086,0.9289502501487732,0.5961562395095825
1729249997644731600,5.975731689453125,12.919411659240723,0.9265560507774353,0.3878606855869293
1729249997654731800,5.985731689453125,12.730269432067871,0.8930372595787048,0.15322890877723694
1729249997664732200,5.995732177734375,12.679991722106934,0.7206547260284424,0.014365210197865963
1729249997674732000,6.00573193359375,12.727875709533691,0.5506663918495178,-0.0933738648891449
1729249997684732200,6.015732177734375,12.768576622009277,0.17238251864910126,-0.1149216815829277
1729249997694732000,6.02573193359375,12.78773021697998,-0.31842881441116333,-0.1412578970193863
1729249997704732200,6.035732177734375,12.737452507019043,-0.7948749661445618,-0.2753331959247589
1729249997714731800,6.045731689453125,12.565070152282715,-1.1659762859344482,-0.507570743560791
1729249997724731400,6.0557314453125,12.179603576660156,-1.4317326545715332,-0.8667010068893433
1729249997734731300,6.065731201171875,11.65766716003418,-1.4652514457702637,-1.1420341730117798
1729249997744731400,6.0757314453125,11.11178970336914,-1.3742717504501343,-1.3311761617660522
1729249997754731300,6.085731201171875,10.728716850280762,-1.158793568611145,-1.3934253454208374
1729249997764731400,6.0957314453125,10.391134262084961,-0.9074024558067322,-1.3000515699386597
1729249997774731800,6.105731689453125,10.084676742553711,-0.6248866319656372,-1.192312479019165
1729249997784731600,6.115731689453125,9.771036148071289,-0.33039984107017517,-1.115697979927063
1729249997794731800,6.125731689453125,9.431059837341309,-0.08379705995321274,-0.9792284965515137
1729249997804731600,6.135731689453125,9.081506729125977,0.12689268589019775,-0.8092401623725891
1729249997814731500,6.1457314453125,8.798990249633789,0.3519476354122162,-0.6919242739677429
1729249997824732000,6.15573193359375,8.676886558532715,0.44771572947502136,-0.6033388376235962
1729249997834731800,6.165731689453125,8.576330184936523,0.5410895943641663,-0.5003881454467773
1729249997845731800,6.17673193359375,8.423100471496582,0.5578489899635315,-0.2968810200691223
1729249997855732000,6.18673193359375,8.243535995483398,0.47884035110473633,-0.19153612852096558
1729249997865731800,6.19673193359375,8.241141319274902,0.5147533416748047,-0.19393034279346466
1729249997875732000,6.20673193359375,8.25311279296875,0.524330198764801,-0.16759411990642548
1729249997885731800,6.21673193359375,8.284236907958984,0.5123591423034668,-0.07661445438861847
1729249997895732000,6.22673193359375,8.248324394226074,0.5195417404174805,0.002394201699644327
1729249997905732400,6.236732421875,8.181286811828613,0.5817909836769104,0.15322890877723694
1729249997915732500,6.246732421875,8.059182167053223,0.7733271718025208,0.2753331959247589
1729249997925732400,6.256732421875,8.004115104675293,1.0271124839782715,0.35673606395721436
1729249997935732500,6.266732421875,7.977779388427734,1.2761094570159912,0.47405192255973816
1729249997945732400,6.276732421875,8.011298179626465,1.4269442558288574,0.5626373887062073
1729249997955732500,6.286732421875,8.12861442565918,1.4700398445129395,0.6607996821403503
1729249997965733400,6.2967333984375,8.296208381652832,1.3886369466781616,0.6105214357376099
1729249997975733200,6.306733154296875,8.415918350219727,1.3215993642807007,0.5482721924781799
1729249997985733400,6.3167333984375,8.459013938903809,1.3335703611373901,0.5985504388809204
1729249997995733200,6.326733154296875,8.619425773620605,1.314416766166687,0.6392518281936646
1729249998005733400,6.3367333984375,8.880393028259277,1.2234370708465576,0.6943184733390808
1729249998015733200,6.346733154296875,9.122207641601562,1.137245774269104,0.768538773059845
1729249998025734000,6.35673388671875,9.301773071289062,1.1204863786697388,0.7445967197418213
1729249998035733800,6.366733642578125,9.555558204650879,1.0199298858642578,0.7110779285430908
1729249998045734400,6.376734375,9.761459350585938,0.8834604024887085,0.6177040338516235
1729249998055734800,6.38673486328125,9.993697166442871,0.7733271718025208,0.6320692300796509
1729249998065735400,6.3967353515625,10.154109001159668,0.7996633648872375,0.7374141216278076
1729249998075735300,6.4067353515625,10.300154685974121,0.8523358106613159,0.9361328482627869
1729249998085735400,6.4167353515625,10.50126838684082,0.9648633003234863,1.192312479019165
1729249998095735300,6.4267353515625,10.822091102600098,1.0055646896362305,1.3335703611373901
1729249998105735400,6.4367353515625,11.159673690795898,0.8523358106613159,1.3263877630233765
1729249998115735300,6.4467353515625,11.482891082763672,0.569819986820221,1.1635819673538208
1729249998125735400,6.4567353515625,11.60020637512207,0.2513911724090576,0.9864110946655273
1729249998135735300,6.4667353515625,11.626543045043945,-0.10295066982507706,0.8427590131759644
1729249998145735400,6.4767353515625,11.834837913513184,-0.3208230137825012,0.751779317855835
1729249998155735300,6.4867353515625,11.949759483337402,-0.3926490843296051,0.811634361743927
1729249998165735400,6.4967353515625,12.272976875305176,-0.23942017555236816,0.8738836050033569
1729249998175735300,6.5067353515625,12.459725379943848,-0.13407529890537262,0.993593692779541
1729249998185735700,6.516735595703125,12.332832336425781,-0.19871874153614044,1.1324573755264282
1729249998195735800,6.52673583984375,12.653655052185059,-0.24660277366638184,1.292868971824646
1729249998205736000,6.53673583984375,12.794913291931152,-0.33758243918418884,1.4077905416488647
1729249998215736000,6.546736083984375,13.132495880126953,-0.3687070608139038,1.3072341680526733
1729249998225736000,6.55673583984375,12.658443450927734,-0.31124621629714966,1.3503297567367554
1729249998235736000,6.566736083984375,11.9928560256958,-0.1843535304069519,1.1348515748977661
1729249998245736000,6.57673583984375,11.643301963806152,-0.20350714027881622,0.8331822156906128
1729249998255736000,6.586736083984375,11.257835388183594,-0.20350714027881622,0.4812345504760742
1729249998265735700,6.596735595703125,11.68879222869873,-0.871489405632019,0.5291185975074768
1729249998275735600,6.606735595703125,11.674427032470703,-1.094150185585022,0.6416460275650024
1729249998285735700,6.616735595703125,11.348814964294434,-1.647210717201233,0.7422025203704834
1729249998295735600,6.626735595703125,11.233893394470215,-2.030282974243164,0.8188169598579407
1729249998305736000,6.63673583984375,10.838850021362305,-2.0877439975738525,0.8690952062606812
1729249998315736000,6.646736083984375,10.53478717803955,-1.9823989868164062,0.8212111592292786
1729249998325736000,6.65673583984375,10.134955406188965,-1.8818424940109253,0.8068459630012512
1729249998335736000,6.666736083984375,9.814131736755371,-1.7094600200653076,0.7805097699165344
1729249998345735700,6.676735595703125,9.632172584533691,-1.5442601442337036,0.6967126727104187
1729249998355735300,6.6867353515625,9.387964248657227,-1.2090718746185303,0.6703764796257019
1729249998365735000,6.69673486328125,9.237129211425781,-0.9193734526634216,0.6512228846549988
1729249998375735000,6.706735107421875,9.138967514038086,-0.7493851184844971,0.6751648783683777
1729249998385735400,6.7167353515625,9.052776336669922,-0.5961562395095825,0.7134721279144287
1729249998395735300,6.7267353515625,8.882787704467773,-0.47644615173339844,0.7134721279144287
1729249998405735400,6.7367353515625,9.01207447052002,-0.3926490843296051,0.849941611289978
1729249998415735300,6.7467353515625,9.201216697692871,-0.3878606855869293,0.9145850539207458
1729249998425735400,6.7567353515625,9.359233856201172,-0.18914192914962769,0.8188169598579407
1729249998435735300,6.7667353515625,9.462183952331543,0.11252748221158981,0.7326257228851318
1729249998445735400,6.7767353515625,9.249100685119629,0.1843535304069519,0.7086837291717529
1729249998455735300,6.7867353515625,9.1940336227417,0.47884035110473633,0.5722141861915588
1729249998465735400,6.7967353515625,9.105448722839355,0.6967126727104187,0.45010992884635925
1729249998475735300,6.8067353515625,8.89954662322998,0.7469909191131592,0.49320554733276367
1729249998485735000,6.81673486328125,8.657732963562012,0.7852981686592102,0.5889736413955688
1729249998495735000,6.826735107421875,8.506897926330566,0.8834604024887085,0.5841852426528931
1729249998505734100,6.836734130859375,8.497321128845215,0.9672574996948242,0.49799394607543945
1729249998515734300,6.846734375,8.447042465209961,1.0438719987869263,0.3471592366695404
1729249998525734100,6.856734130859375,8.547599792480469,1.237802267074585,0.14844051003456116
1729249998535734300,6.866734375,8.758289337158203,1.414973258972168,0.1843535304069519
1729249998545734400,6.876734375,8.940248489379883,1.45806884765625,0.22266076505184174
1729249998555734800,6.88673486328125,9.17009162902832,1.460463047027588,0.2561795711517334
1729249998565735200,6.896735107421875,9.354445457458496,1.3646949529647827,0.21787235140800476
1729249998575735300,6.9067353515625,9.428665161132812,1.3263877630233765,0.16519992053508759
1729249998585735200,6.916735107421875,9.505280494689941,1.414973258972168,0.10295066982507706
1729249998595735300,6.9267353515625,9.644144058227539,1.2497732639312744,0.2082955539226532
1729249998605735000,6.93673486328125,9.96017837524414,1.0678139925003052,0.1388636976480484
1729249998615734800,6.94673486328125,10.211569786071777,1.0007762908935547,-0.1412578970193863
1729249998625735000,6.95673486328125,10.369586944580078,0.9433154463768005,-0.2992752194404602
1729249998635734800,6.96673486328125,10.632948875427246,0.9792284965515137,-0.4118026793003082
1729249998645735000,6.97673486328125,10.819696426391602,0.9768342971801758,-0.4620809257030487
1729249998655734800,6.98673486328125,11.1381254196167,0.8882488012313843,-0.44771572947502136
1729249998665735000,6.99673486328125,11.482891082763672,0.9193734526634216,-0.4118026793003082
1729249998675734800,7.00673486328125,11.676820755004883,0.8331822156906128,-0.2992752194404602
1729249998685734400,7.016734375,11.913846969604492,0.7158663272857666,-0.1412578970193863
1729249998695734500,7.026734619140625,12.2897367477417,0.586579442024231,-0.014365210197865963
1729249998705734400,7.036734375,12.598588943481445,0.4668693244457245,-0.05985504388809204
1729249998715734500,7.046734619140625,12.756606101989746,0.40462008118629456,-0.20111294090747833
1729249998725734400,7.056734375,12.778153419494629,0.2944868206977844,-0.31842881441116333
1729249998735734500,7.066734619140625,12.725481033325195,0.2561795711517334,-0.4141969084739685
1729249998745735000,7.07673486328125,12.68478012084961,0.2944868206977844,-0.45489832758903503
1729249998755734800,7.08673486328125,12.672808647155762,0.3663128614425659,-0.5722141861915588
1729249998765735000,7.09673486328125,12.612954139709473,0.4884171485900879,-0.8643068075180054
1729249998775734800,7.10673486328125,12.344802856445312,0.569819986820221,-1.1803414821624756
1729249998785735000,7.11673486328125,11.913846969604492,0.6871358752250671,-1.4460978507995605
1729249998795734800,7.12673486328125,11.557110786437988,0.7709329724311829,-1.6711528301239014
1729249998805735700,7.136735595703125,11.233893394470215,0.7254431247711182,-1.6879122257232666
1729249998815735600,7.146735595703125,11.056722640991211,0.586579442024231,-1.5394717454910278
1729249998834746600,7.16574658203125,11.449371337890625,0.19632454216480255,-1.1276689767837524
1729249998844741000,7.1757412109375,11.413458824157715,-0.09816227108240128,-1.036689281463623
1729249998854737400,7.1857373046875,11.200374603271484,-0.26096799969673157,-0.9696516990661621
1729249998864734700,7.195734619140625,11.018415451049805,-0.35434186458587646,-0.9481038451194763
1729249998874732500,7.205732666015625,10.860398292541504,-0.3758896589279175,-1.0007762908935547
1729249998884730600,7.215730712890625,10.697592735290527,-0.40222588181495667,-0.9983820915222168
1729249998894729200,7.225729248046875,10.494085311889648,-0.33518823981285095,-0.9672574996948242
1729249998904727800,7.235727783203125,10.35522174835205,-0.2322375625371933,-0.9074024558067322
1729249998914727700,7.245727783203125,10.034399032592773,-0.15562310814857483,-0.828393816947937
1729249998924726800,7.255726806640625,9.74709415435791,-0.16759411990642548,-0.6584054827690125
1729249998934725600,7.2657255859375,9.761459350585938,-0.17956513166427612,-0.3687070608139038
1729249998944724700,7.275724853515625,9.862015724182129,-0.2298433631658554,-0.08140286058187485
1729249998954723800,7.285723876953125,9.80455493927002,-0.3447650372982025,0.14844051003456116
1729249998964723200,7.29572314453125,9.816526412963867,-0.2801215946674347,0.22266076505184174
1729249998974722300,7.305722412109375,9.703998565673828,-0.24660277366638184,0.23942017555236816
1729249998984721700,7.3157216796875,9.787796020507812,0.0071826050989329815,0.10534487664699554
1729249998994721000,7.325720947265625,9.364022254943848,0.0454898327589035,0.18914192914962769
1729249999004720400,7.335720458984375,8.652944564819336,0.1412578970193863,0.3711012601852417
1729249999014719700,7.3457197265625,8.320150375366211,0.3734954595565796,0.47165772318840027
1729249999024720000,7.355719970703125,8.183680534362793,0.6105214357376099,0.5650315880775452
1729249999034719200,7.36571923828125,8.140584945678711,0.871489405632019,0.47644615173339844
1729249999044718800,7.37571875,8.063970565795898,1.1635819673538208,0.4118026793003082
1729249999054718200,7.38571826171875,8.068758964538574,1.1540051698684692,0.38546648621559143
1729249999064717800,7.3957177734375,7.972990989685059,1.482010841369629,0.40462008118629456
1729249999074717400,7.405717529296875,7.965808391571045,1.6424223184585571,0.36152446269989014
1729249999084717000,7.415717041015625,7.9538373947143555,1.7956513166427612,0.1604115068912506
1729249999094716700,7.425716552734375,7.922712802886963,1.8746598958969116,0.05267243832349777
1729249999104716000,7.435716064453125,8.013691902160645,2.0254945755004883,-0.026336219161748886
1729249999114715600,7.445715576171875,8.291419982910156,2.0925323963165283,-0.11971008777618408
1729249999124715800,7.4557158203125,8.396764755249023,2.0638017654418945,-0.07900865375995636
1729249999134715400,7.46571533203125,8.552388191223145,1.9249382019042969,-0.031124621629714966
1729249999144715300,7.47571533203125,8.760683059692383,1.8267759084701538,-0.026336219161748886
1729249999154715400,7.48571533203125,9.021651268005371,1.7908629179000854,-0.07182604819536209
1729249999164715500,7.495715576171875,9.234735488891602,1.766920804977417,-0.026336219161748886
1729249999174715400,7.50571533203125,9.323320388793945,1.7405846118927002,0.14844051003456116
1729249999184715800,7.5157158203125,9.47654914855957,1.7573440074920654,0.35434186458587646
1729249999194716000,7.5257158203125,9.775824546813965,1.7381904125213623,0.5315127968788147
1729249999204715800,7.5357158203125,10.065523147583008,1.6927006244659424,0.586579442024231
1729249999214715400,7.54571533203125,10.242693901062012,1.6615760326385498,0.5315127968788147
1729249999224715500,7.555715576171875,10.462960243225098,1.5825673341751099,0.5386953949928284
1729249999234715400,7.56571533203125,10.781389236450195,1.5394717454910278,0.5506663918495178
1729249999244715800,7.5757158203125,11.195586204528809,1.403002142906189,0.5171475410461426
1729249999254716000,7.5857158203125,11.616966247558594,1.3479355573654175,0.5674257874488831
1729249999264716000,7.595716064453125,12.000038146972656,1.036689281463623,0.6057330369949341
1729249999274716400,7.60571630859375,12.371139526367188,1.0079588890075684,0.6607996821403503
1729249999284716500,7.615716552734375,12.57225227355957,0.7541735172271729,0.751779317855835
1729249999294716400,7.62571630859375,12.730269432067871,0.608127236366272,0.8978256583213806
1729249999304716500,7.635716552734375,12.71829891204834,0.47405192255973816,1.0007762908935547
1729249999314716400,7.64571630859375,12.833220481872559,0.5219359993934631,1.1420341730117798
1729249999324716500,7.655716552734375,12.852374076843262,0.7038952708244324,1.2713210582733154
1729249999334716700,7.665716552734375,12.620136260986328,0.768538773059845,1.357512354850769
1729249999344716500,7.675716552734375,12.313678741455078,0.7613561153411865,1.4676456451416016
1729249999354716700,7.685716552734375,11.887510299682617,0.6727706789970398,1.7477672100067139
1729249999364716500,7.695716552734375,11.68879222869873,0.38307225704193115,2.0853497982025146
1729249999374716700,7.705716552734375,11.796530723571777,-0.043095629662275314,2.427720546722412
1729249999384716500,7.715716552734375,12.069470405578613,-0.49320554733276367,2.6431987285614014
1729249999394716700,7.725716552734375,12.342409133911133,-0.9361328482627869,2.650381326675415
1729249999404716500,7.735716552734375,12.368744850158691,-1.2282254695892334,2.513911724090576
1729249999414717000,7.745717041015625,12.08622932434082,-1.3718775510787964,2.248155355453491
1729249999424717000,7.755717041015625,11.62175464630127,-1.359906554222107,1.9584569931030273
1729249999434717000,7.765717041015625,11.061511039733887,-1.0965443849563599,1.802833914756775
1729249999444717000,7.775717041015625,10.556334495544434,-0.7805097699165344,1.742978811264038
1729249999454717000,7.785717041015625,10.118195533752441,-0.43335050344467163,1.7693150043487549
1729249999464716800,7.795716796875,9.766247749328613,-0.1149216815829277,1.8195933103561401
1729249999474717000,7.805717041015625,9.457395553588867,0.21308395266532898,1.7956513166427612
1729249999484716800,7.815716796875,9.083900451660156,0.45489832758903503,1.6496049165725708
1729249999494717000,7.825717041015625,8.770259857177734,0.5937620401382446,1.4867992401123047
1729249999504716800,7.835716796875,8.547599792480469,0.7206547260284424,1.3551181554794312
1729249999514717000,7.845717041015625,8.478167533874512,0.8738836050033569,1.216254472732544
1729249999524717000,7.855717041015625,8.365639686584473,0.9481038451194763,1.070208191871643
1729249999534717000,7.865717041015625,8.291419982910156,0.9959878921508789,0.9816226959228516
1729249999544717000,7.875717041015625,8.250718116760254,1.072602391242981,0.9265560507774353
1729249999554717000,7.885717041015625,8.243535995483398,1.1683704853057861,0.8403648138046265
1729249999564716500,7.895716552734375,8.25550651550293,1.2976573705673218,0.7110779285430908
1729249999574716200,7.905716064453125,8.12861442565918,1.4700398445129395,0.5554547905921936
1729249999584716300,7.91571630859375,7.987356185913086,1.6208745241165161,0.49559974670410156
1729249999594716200,7.925716064453125,7.8437042236328125,1.7741034030914307,0.4836287498474121
1729249999604716500,7.935716552734375,7.759906768798828,1.8818424940109253,0.36152446269989014
1729249999614716700,7.945716552734375,7.805397033691406,2.03507137298584,0.2059013396501541
1729249999624716300,7.95571630859375,7.939472198486328,2.164358377456665,0.10295066982507706
1729249999634716200,7.965716064453125,8.12861442565918,2.252943754196167,0.016759412363171577
1729249999644716300,7.97571630859375,8.21959400177002,2.2888567447662354,-0.07900865375995636
1729249999654716200,7.985716064453125,8.312967300415039,2.3127987384796143,-0.05746084079146385
1729249999664716000,7.995716064453125,8.571541786193848,2.293645143508911,-0.0071826050989329815
1729249999674716000,8.0057158203125,8.877999305725098,2.252943754196167,0.004788403399288654
1729249999684716000,8.015716064453125,9.220370292663574,2.1954829692840576,0.05027823522686958
1729249999694716000,8.0257158203125,9.452607154846191,2.161964178085327,0.0933738648891449
1729249999704716000,8.035716064453124,9.701604843139648,2.1164743900299072,0.1173158809542656
1729249999714715600,8.045715576171874,9.888352394104004,2.1140801906585693,0.12449848651885986
1729249999724715300,8.05571533203125,10.132560729980469,2.169146776199341,0.14365209639072418
1729249999734715100,8.065715087890625,10.312126159667969,2.1930887699127197,0.08379705995321274
1729249999744715500,8.075715576171875,10.510845184326172,2.2026655673980713,0.05506663769483566
1729249999754716000,8.0857158203125,10.654497146606445,2.3104045391082764,0.06464344263076782
1729249999764716000,8.095716064453125,10.755053520202637,2.3989901542663574,-0.019153613597154617
1729249999774716400,8.10571630859375,10.853215217590332,2.43011474609375,-0.07661445438861847
1729249999784716300,8.11571630859375,11.006444931030273,2.403778553009033,-0.06224924325942993
1729249999794716400,8.12571630859375,11.3176908493042,2.322375535964966,0.05267243832349777
1729249999804716300,8.13571630859375,11.631331443786621,2.1523873805999756,0.21547815203666687
1729249999814716400,8.14571630859375,11.968914031982422,1.941697597503662,0.35673606395721436
1729249999824716300,8.15571630859375,12.335226058959961,1.702277421951294,0.3687070608139038
1729249999834716200,8.165716064453125,12.75181770324707,1.4987702369689941,0.22744916379451752
1729249999844716300,8.17571630859375,12.888286590576172,1.436521053314209,-0.035913024097681046
1729249999854716200,8.185716064453125,12.859556198120117,1.3335703611373901,-0.24899697303771973
1729249999864716300,8.19571630859375,12.782941818237305,1.3024457693099976,-0.395043283700943
1729249999874716200,8.205716064453124,12.778153419494629,1.381454348564148,-0.5410895943641663
1729249999884716300,8.21571630859375,12.723087310791016,1.5179238319396973,-0.7326257228851318
1729249999894716200,8.225716064453126,12.545916557312012,1.6304513216018677,-0.9385270476341248
1729249999904716300,8.23571630859375,12.280159950256348,1.6855180263519287,-1.2018892765045166
1729249999914716700,8.245716552734375,12.000038146972656,1.5825673341751099,-1.400607943534851
1729249999924716500,8.255716552734375,11.686397552490234,1.5490485429763794,-1.4484920501708984
1729249999934716700,8.265716552734375,11.514015197753906,1.278503656387329,-1.280897855758667
1729249999944716500,8.275716552734375,11.62175464630127,0.7757213711738586,-1.0989385843276978
1729249999954716700,8.285716552734375,11.772588729858398,0.304063618183136,-0.9433154463768005
1729249999964717300,8.29571728515625,11.758223533630371,-0.1604115068912506,-0.8834604024887085
1729249999974717200,8.30571728515625,11.583447456359863,-0.44532153010368347,-1.0103530883789062
1729249999984717600,8.315717529296874,11.152490615844727,-0.6272808313369751,-1.2617442607879639
1729249999994717700,8.3257177734375,10.755053520202637,-0.47405192255973816,-1.3982137441635132
1729250000004717600,8.335717529296875,10.25466537475586,-0.15801730751991272,-1.4053963422775269
1729250000014717700,8.3457177734375,9.83807373046875,0.1867477297782898,-1.2761094570159912
1729250000024717800,8.3557177734375,9.591471672058105,0.4381389021873474,-1.0965443849563599
1729250000034718000,8.365718017578125,9.500492095947266,0.6655880808830261,-0.8762778043746948
1729250000044717600,8.375717529296875,9.325715065002441,0.7924807667732239,-0.6105214357376099
1729250000054717200,8.38571728515625,9.062353134155273,0.8451532125473022,-0.3663128614425659
1729250000064717300,8.39571728515625,8.95700740814209,0.8188169598579407,-0.26575639843940735
1729250000074717000,8.405717041015626,8.925883293151855,0.7996633648872375,-0.14365209639072418
1729250000084716500,8.415716552734375,8.901941299438477,0.8188169598579407,0.016759412363171577
1729250000094716400,8.42571630859375,8.837297439575195,0.7972691655158997,0.15562310814857483
1729250000104716500,8.435716552734375,8.787019729614258,0.7613561153411865,0.19153612852096558
1729250000114716400,8.44571630859375,8.770259857177734,0.7781155705451965,0.16998831927776337
1729250000124716500,8.455716552734375,8.68406867980957,0.849941611289978,0.10773907601833344
1729250000134716400,8.46571630859375,8.535628318786621,0.9002198576927185,0.07182604819536209
1729250000144715500,8.475715576171876,8.454225540161133,1.039083480834961,0.038307227194309235
1729250000154715600,8.485715576171875,8.368034362792969,1.2880805730819702,0.014365210197865963
1729250000164715800,8.4957158203125,8.224382400512695,1.4676456451416016,0.07182604819536209
1729250000174716000,8.5057158203125,8.207622528076172,1.6687586307525635,0.21787235140800476
1729250000184715800,8.5157158203125,8.394370079040527,1.9105730056762695,0.3758896589279175
1729250000194716000,8.5257158203125,8.50450325012207,2.011129379272461,0.3926490843296051
1729250000204715800,8.5357158203125,8.463802337646484,2.0614075660705566,0.3447650372982025
1729250000214715400,8.54571533203125,8.461407661437988,2.0590133666992188,0.2585737705230713
1729250000224715500,8.555715576171876,8.511686325073242,1.9752163887023926,0.15562310814857483
1729250000234715400,8.56571533203125,8.61463737487793,2.008735179901123,0.13168109953403473
1729250000244715500,8.575715576171875,8.7391357421875,2.1547815799713135,0.23942017555236816
1729250000254715400,8.58571533203125,8.822932243347168,2.229001760482788,0.45250412821769714
1729250000264715500,8.595715576171875,8.889969825744629,2.2002713680267334,0.6224924325942993
1729250000274715600,8.605715576171875,9.052776336669922,2.097320795059204,0.8331822156906128
1729250000284715500,8.615715576171874,9.239523887634277,2.0039467811584473,1.0103530883789062
1729250000294715400,8.62571533203125,9.495702743530273,1.8962076902389526,1.161187767982483
1729250000304715500,8.635715576171876,9.65611457824707,1.8267759084701538,1.2952631711959839
1729250000314715400,8.64571533203125,9.89314079284668,1.778891921043396,1.2521674633026123
1729250000324715500,8.655715576171875,10.118195533752441,1.800439715385437,1.0654197931289673
1729250000334715400,8.66571533203125,10.137349128723145,1.8339585065841675,0.9744400978088379
1729250000344715500,8.675715576171875,10.292972564697266,1.8770540952682495,0.9672574996948242
1729250000354715400,8.68571533203125,10.56112289428711,1.8818424940109253,1.091755986213684
1729250000364715500,8.695715576171875,10.858003616333008,1.6663644313812256,1.3718775510787964
1729250000374715400,8.70571533203125,11.212346076965332,1.4460978507995605,1.656787633895874
1729250000384715500,8.715715576171876,11.50683307647705,1.2449848651885986,1.8483237028121948
1729250000394715600,8.725715576171876,11.767800331115723,1.170764684677124,1.886630892753601
1729250000404715500,8.735715576171875,11.801319122314453,1.2114660739898682,1.8555063009262085
1729250000414716000,8.7457158203125,11.755829811096191,1.2210428714752197,1.9153614044189453
1729250000424716000,8.755716064453125,11.78216552734375,1.3215993642807007,1.9129672050476074
1729250000434716000,8.7657158203125,11.832444190979004,1.4724340438842773,1.8722656965255737
1729250000444716500,8.775716552734375,11.911452293395996,1.6041151285171509,1.8698714971542358
1729250000454716400,8.78571630859375,11.966519355773926,1.6831238269805908,1.8387469053268433
1729250000464716800,8.795716796875,11.844414710998535,1.625662922859192,1.821987509727478
1729250000474716700,8.805716552734374,11.784560203552246,1.50355863571167,1.8195933103561401
1729250000484716500,8.815716552734376,11.755829811096191,1.2282254695892334,1.9919757843017578
1729250000494716700,8.825716552734375,11.956942558288574,0.730231523513794,2.276885747909546
1729250000504716300,8.83571630859375,12.320860862731934,0.05267243832349777,2.4588451385498047
1729250000514716200,8.845716064453125,12.78773021697998,-0.6775590777397156,2.6024973392486572
1729250000524716300,8.85571630859375,13.142072677612305,-1.2401964664459229,2.760514497756958
1729250000534716400,8.86571630859375,13.096582412719727,-1.8986018896102905,2.7892448902130127
1729250000544716300,8.87571630859375,12.840402603149414,-2.298433542251587,2.518700122833252
1729250000554716400,8.88571630859375,12.332832336425781,-2.3726539611816406,2.1978771686553955
1729250000564716000,8.895716064453126,11.590629577636719,-1.9847931861877441,2.0590133666992188
1729250000574715600,8.905715576171875,10.858003616333008,-1.4293384552001953,1.9728221893310547
1729250000584715500,8.915715576171875,10.168474197387695,-0.7182605266571045,1.9800047874450684
1729250000594715600,8.925715576171875,9.636960983276367,-0.1173158809542656,2.0853497982025146
1729250000604715500,8.935715576171875,9.249100685119629,0.40701428055763245,2.183511972427368
1729250000614715600,8.945715576171875,8.913911819458008,0.8044517636299133,2.1811177730560303
1729250000624715500,8.955715576171874,8.41112995147705,1.0534487962722778,2.1308395862579346
1729250000634715600,8.965715576171876,8.109460830688477,1.170764684677124,1.9823989868164062
1729250000644715500,8.975715576171876,7.939472198486328,1.259350061416626,1.7908629179000854
1729250000654715600,8.985715576171875,7.826944828033447,1.2952631711959839,1.6304513216018677
1729250000664715800,8.9957158203125,7.767089366912842,1.3311761617660522,1.4867992401123047
1729250000674715600,9.005715576171875,7.738358974456787,1.3335703611373901,1.4269442558288574
1729250000684715500,9.015715576171875,7.7742719650268555,1.3215993642807007,1.3287819623947144
1729250000694715600,9.025715576171875,7.783848762512207,1.3551181554794312,1.2689268589019775
1729250000704716000,9.035716064453124,7.771877765655518,1.3910311460494995,1.161187767982483
1729250000714715600,9.045715576171874,7.738358974456787,1.50355863571167,1.0319008827209473
1729250000724715500,9.055715576171876,7.7287821769714355,1.6136919260025024,0.9217676520347595
1729250000734715600,9.065715576171876,7.719205379486084,1.7621324062347412,0.7972691655158997
1729250000744716000,9.075716064453125,7.716811180114746,1.9153614044189453,0.667982280254364
1729250000754716000,9.0857158203125,7.826944828033447,1.9991583824157715,0.5746083855628967
1729250000764715500,9.095715576171875,7.968202590942383,2.10210919380188,0.5171475410461426
1729250000774715600,9.105715576171875,8.109460830688477,2.126051187515259,0.5003881454467773
1729250000784715800,9.1157158203125,8.28902530670166,2.1739351749420166,0.4836287498474121
1729250000794715600,9.125715576171874,8.542811393737793,2.188300371170044,0.47165772318840027
1729250000804715800,9.1357158203125,8.901941299438477,2.209848165512085,0.5482721924781799
1729250000814715600,9.145715576171876,9.1940336227417,2.3367409706115723,0.7230489253997803
1729250000824715500,9.155715576171875,9.426271438598633,2.43011474609375,0.9074024558067322
1729250000834715600,9.165715576171875,9.665691375732422,2.5737667083740234,1.1109095811843872
1729250000844715500,9.175715576171875,9.955389976501465,2.695871114730835,1.2713210582733154
1729250000854715600,9.185715576171875,10.060734748840332,2.808398485183716,1.3311761617660522
1729250000864715500,9.195715576171875,10.137349128723145,2.913743495941162,1.2330138683319092
1729250000874715600,9.205715576171874,10.23311710357666,2.983175277709961,1.0295066833496094
1729250000884715500,9.215715576171876,10.439018249511719,2.9927520751953125,0.8451532125473022
1729250000894715600,9.225715576171876,10.826879501342773,2.8802247047424316,0.6943184733390808
1729250000904715500,9.235715576171875,11.059117317199707,2.7317841053009033,0.7350199222564697
1729250000914716000,9.2457158203125,11.44458293914795,2.609679937362671,0.8667010068893433
1729250000924716000,9.255716064453125,11.806107521057129,2.4803929328918457,0.9816226959228516
1729250000934716000,9.2657158203125,12.208333969116211,2.2170307636260986,1.0845733880996704
1729250000944716000,9.275716064453125,12.450148582458496,1.9512743949890137,1.1468225717544556
1729250000954716000,9.2857158203125,12.6273193359375,1.6831238269805908,1.1109095811843872
1729250000964715800,9.2957158203125,12.823643684387207,1.4700398445129395,0.9552865028381348
1729250000974716000,9.3057158203125,13.05827522277832,1.3192051649093628,0.7829039692878723
1729250000984716300,9.31571630859375,12.897863388061523,1.2832920551300049,0.7134721279144287
1729250000994716200,9.325716064453125,12.711115837097168,1.314416766166687,0.6799532771110535
1729250001004715800,9.3357158203125,12.622530937194824,1.4053963422775269,0.5267243981361389
1729250001014716000,9.3457158203125,12.586617469787598,1.4484920501708984,0.2561795711517334
1729250001024716000,9.355716064453125,12.450148582458496,1.5203180313110352,-0.023942016065120697
1729250001034716000,9.3657158203125,12.117354393005371,1.5107412338256836,-0.2513911724090576
1729250001044715500,9.375715576171874,11.861174583435059,1.4700398445129395,-0.33279404044151306
1729250001054715600,9.385715576171876,11.949759483337402,1.2880805730819702,-0.2992752194404602
1729250001064715500,9.395715576171876,12.193968772888184,0.849941611289978,-0.26096799969673157
1729250001074715600,9.405715576171875,12.395081520080566,0.3711012601852417,-0.2513911724090576
1729250001084715500,9.415715576171875,12.486061096191406,-0.08379705995321274,-0.3232172429561615
1729250001094715600,9.425715576171875,12.430994033813477,-0.35913026332855225,-0.44771572947502136
1729250001104715800,9.4357158203125,12.14129638671875,-0.7398083209991455,-0.6943184733390808
1729250001114716000,9.4457158203125,11.806107521057129,-0.9002198576927185,-1.036689281463623
1729250001124715800,9.4557158203125,11.406275749206543,-0.9002198576927185,-1.216254472732544
1729250001134716000,9.4657158203125,11.018415451049805,-0.828393816947937,-1.2617442607879639
1729250001144715800,9.4757158203125,10.759841918945312,-0.6919242739677429,-1.2210428714752197
1729250001154716000,9.4857158203125,10.529998779296875,-0.5147533416748047,-1.0654197931289673
1729250001164716300,9.49571630859375,10.307337760925293,-0.3926490843296051,-0.9169792532920837
1729250001174716200,9.505716064453125,10.020033836364746,-0.31364041566848755,-0.7972691655158997
1729250001184716300,9.51571630859375,9.723152160644531,-0.2059013396501541,-0.6991068720817566
1729250001194716200,9.525716064453125,9.445425033569336,-0.05746084079146385,-0.5027823448181152
1729250001204716300,9.53571630859375,9.174880027770996,0.2059013396501541,-0.3519476354122162
1729250001214716000,9.5457158203125,8.904335021972656,0.43095630407333374,-0.20111294090747833
1729250001224715500,9.555715576171876,8.655338287353516,0.6248866319656372,-0.08619125932455063
1729250001234715600,9.565715576171876,8.430283546447754,0.7829039692878723,-0.002394201699644327
1729250001244715500,9.575715576171875,8.193257331848145,0.9816226959228516,0.09576806426048279
1729250001254715600,9.585715576171875,8.011298179626465,1.1444283723831177,0.20350714027881622
1729250001264715500,9.595715576171875,7.850886821746826,1.2880805730819702,0.2849099934101105
1729250001274716000,9.6057158203125,7.67850399017334,1.45806884765625,0.38546648621559143
1729250001284715800,9.6157158203125,7.573159217834473,1.6711528301239014,0.5578489899635315
1729250001294716000,9.6257158203125,7.49654483795166,1.8746598958969116,0.7469909191131592
1729250001304715800,9.6357158203125,7.419930458068848,2.0925323963165283,0.8427590131759644
1729250001314716000,9.6457158203125,7.316979885101318,2.3080103397369385,0.8930372595787048
1729250001324715800,9.6557158203125,7.23797082901001,2.518700122833252,0.9074024558067322
1729250001334716000,9.6657158203125,7.209240436553955,2.609679937362671,0.9457096457481384
1729250001344716300,9.67571630859375,7.281066417694092,2.717418909072876,0.9768342971801758
1729250001354716200,9.685716064453125,7.4462666511535645,2.7293899059295654,0.9648633003234863
1729250001364716300,9.69571630859375,7.630620002746582,2.607285737991333,0.9720458984375
1729250001374716200,9.705716064453124,7.781454563140869,2.454056739807129,0.933738648891449
1729250001384716500,9.715716552734374,7.867646217346191,2.33913516998291,0.9002198576927185
1729250001394716400,9.72571630859375,7.980173587799072,2.1954829692840576,0.9840168952941895
1729250001404716500,9.735716552734376,8.16452693939209,2.070984363555908,1.1875240802764893
1729250001414717000,9.745717041015626,8.547599792480469,1.9704279899597168,1.4197616577148438
1729250001424717300,9.75571728515625,8.818143844604492,1.9345149993896484,1.6160861253738403
1729250001434717200,9.76571728515625,9.028834342956543,1.9057846069335938,1.745373010635376
1729250001444717300,9.77571728515625,9.217975616455078,1.8962076902389526,1.7597382068634033
1729250001454717200,9.78571728515625,9.419088363647461,1.9249382019042969,1.8267759084701538
1729250001464717300,9.79571728515625,9.675268173217773,1.9488801956176758,1.9153614044189453
1729250001474717200,9.80571728515625,9.897929191589355,2.0183119773864746,2.0590133666992188
1729250001484717300,9.81571728515625,10.194809913635254,2.0254945755004883,2.1475989818573
1729250001494717200,9.82571728515625,10.479720115661621,1.9177556037902832,2.1092917919158936
1729250001504717300,9.83571728515625,10.817302703857422,1.766920804977417,1.9345149993896484
1729250001514717200,9.84571728515625,10.944194793701172,1.599326729774475,1.7405846118927002
1729250001524717600,9.855717529296875,11.02320384979248,1.403002142906189,1.5921441316604614
1729250001534717700,9.8657177734375,11.063905715942383,1.2497732639312744,1.4724340438842773
1729250001544717600,9.875717529296875,11.209951400756836,1.1037269830703735,1.414973258972168
1729250001554717700,9.8857177734375,11.449371337890625,1.1204863786697388,1.4532804489135742
1729250001564717600,9.895717529296874,11.631331443786621,1.1420341730117798,1.4532804489135742
1729250001574717200,9.90571728515625,11.95933723449707,1.170764684677124,1.577778935432434
1729250001584716800,9.915716796875,12.373533248901367,1.048660397529602,1.8387469053268433
1729250001594717000,9.925717041015625,12.68478012084961,0.7182605266571045,2.2625205516815186
1729250001604716800,9.935716796875,13.019968032836914,0.1604115068912506,2.647987127304077
1729250001614717000,9.945717041015625,13.42219352722168,-0.395043283700943,2.9448680877685547
1729250001624716800,9.955716796875,13.707103729248047,-1.0055646896362305,3.002328872680664
1729250001634717000,9.965717041015624,13.769352912902832,-1.8052281141281128,2.8658595085144043
1729250001644716500,9.975716552734376,13.707103729248047,-2.3487119674682617,2.5737667083740234
1729250001654716400,9.98571630859375,13.56584644317627,-2.6455929279327393,2.212242364883423
1729250001664716500,9.995716552734375,13.14925479888916,-2.6647465229034424,1.9057846069335938
1729250001674716700,10.005716552734375,12.48127269744873,-2.5019407272338867,1.702277421951294
1729250001684716300,10.01571630859375,11.588235855102539,-2.0231003761291504,1.745373010635376
1729250001694716200,10.025716064453125,10.905887603759766,-1.6280571222305298,1.8914192914962769
1729250001704716300,10.03571630859375,10.242693901062012,-1.1971008777618408,2.0661959648132324
1729250001714716000,10.0457158203125,9.581894874572754,-0.7876923680305481,2.2697031497955322
1729250001724715500,10.055715576171876,9.138967514038086,-0.28730419278144836,2.4133553504943848
1729250001734715400,10.06571533203125,8.858845710754395,0.1149216815829277,2.4133553504943848
1729250001744715500,10.075715576171875,8.624214172363281,0.35434186458587646,2.3343467712402344
1729250001754715400,10.08571533203125,8.482955932617188,0.42377370595932007,2.166752576828003
1729250001764715500,10.095715576171875,8.391976356506348,0.40222588181495667,1.9393033981323242
1729250001774716000,10.1057158203125,8.269871711730957,0.3711012601852417,1.7812861204147339
1729250001784715800,10.1157158203125,8.243535995483398,0.33997663855552673,1.5945383310317993
1729250001794716200,10.125716064453124,8.31057357788086,0.3926490843296051,1.45806884765625
1729250001804716300,10.13571630859375,8.212410926818848,0.3902548849582672,1.357512354850769
1729250001814716200,10.145716064453126,8.092700958251953,0.44771572947502136,1.2497732639312744
1729250001824716300,10.15571630859375,8.054393768310547,0.5770025849342346,1.1540051698684692
1729250001834716200,10.165716064453125,8.07354736328125,0.7350199222564697,1.0678139925003052
1729250001844716300,10.17571630859375,8.10706615447998,0.8619126081466675,0.9457096457481384
1729250001854716200,10.185716064453125,7.905953407287598,1.3407529592514038,0.5889736413955688
1729250001864716300,10.19571630859375,7.755118370056152,1.3431471586227417,0.5315127968788147
1729250001874716200,10.205716064453124,7.76948356628418,1.522712230682373,0.40462008118629456
1729250001884716500,10.215716552734374,8.092700958251953,1.7860745191574097,0.3902548849582672
1729250001894716700,10.225716552734376,8.451830863952637,1.987187385559082,0.5386953949928284
1729250001904716500,10.235716552734376,8.672098159790039,2.011129379272461,0.6607996821403503
1729250001914717700,10.2457177734375,8.827720642089844,2.274491548538208,0.7086837291717529
1729250001924717800,10.2557177734375,9.083900451660156,2.2601263523101807,0.9720458984375
1729250001934717700,10.2657177734375,9.517251014709473,2.3056161403656006,0.9433154463768005
1729250001944717800,10.2757177734375,9.845256805419922,2.099714994430542,0.9433154463768005
1729250001954717700,10.2857177734375,10.170867919921875,2.0039467811584473,0.8068459630012512
1729250001964717600,10.295717529296875,10.551546096801758,2.0231003761291504,0.5482721924781799
1729250001974717700,10.3057177734375,10.77660083770752,1.721431016921997,0.3998316824436188
1729250001984717600,10.315717529296874,11.061511039733887,1.7070658206939697,0.26575639843940735
1729250001994717700,10.3257177734375,11.231499671936035,1.7381904125213623,0.2298433631658554
1729250002004717300,10.33571728515625,11.408670425415039,1.6759412288665771,0.24420857429504395
1729250002014717400,10.345717529296875,11.652878761291504,1.699883222579956,0.19871874153614044
1729250002024717600,10.355717529296875,11.913846969604492,1.764526605606079,0.17477671802043915
1729250002034717700,10.3657177734375,12.14369010925293,1.7908629179000854,0.2298433631658554
1729250002044717600,10.375717529296875,12.277765274047852,1.7932571172714233,0.16519992053508759
1729250002054717700,10.3857177734375,12.280159950256348,1.7310078144073486,0.09816227108240128
1729250002064717600,10.395717529296874,12.251429557800293,1.659181833267212,0.090979665517807
1729250002074717400,10.405717529296876,12.433388710021973,1.644816517829895,-0.05746084079146385
1729250002084717300,10.41571728515625,12.493244171142578,1.53707754611969,-0.26815059781074524
1729250002094717000,10.425717041015625,12.342409133911133,1.403002142906189,-0.5482721924781799
1729250002104717000,10.435717041015625,12.237064361572266,1.3096283674240112,-0.7422025203704834
1729250002114717000,10.445717041015625,12.39268684387207,1.1013327836990356,-0.9409212470054626
1729250002124716800,10.455716796875,12.591405868530273,0.9696516990661621,-1.2306196689605713
1729250002134716700,10.465716552734374,12.713510513305664,0.7254431247711182,-1.3311761617660522
1729250002144716800,10.475716796875,12.670414924621582,0.6488286852836609,-1.3455413579940796
1729250002154716700,10.485716552734376,12.531551361083984,0.30885201692581177,-1.3551181554794312
1729250002164716800,10.495716796875,12.498032569885254,-0.004788403399288654,-1.3287819623947144
1729250002174717000,10.505717041015625,12.53633975982666,-0.4165911078453064,-1.259350061416626
1729250002184716800,10.515716796875,12.541128158569336,-0.7422025203704834,-1.1204863786697388
1729250002194717000,10.525717041015625,12.519579887390137,-1.0342950820922852,-1.0247182846069336
1729250002204716800,10.535716796875,12.249034881591797,-1.357512354850769,-1.1779472827911377
1729250002214715600,10.545715576171874,11.652878761291504,-1.5131354331970215,-1.4245500564575195
1729250002224715800,10.5557158203125,10.992079734802246,-1.4772224426269531,-1.6136919260025024
1729250002234715600,10.565715576171876,10.541969299316406,-1.1540051698684692,-1.6615760326385498
1729250002244716000,10.575716064453125,10.13974380493164,-0.8667010068893433,-1.6065093278884888
1729250002254716000,10.5857158203125,9.715970039367676,-0.507570743560791,-1.5490485429763794
1729250002264716000,10.595716064453125,9.375992774963379,-0.27054479718208313,-1.4437036514282227
1729250002274716400,10.60571630859375,9.088688850402832,-0.06703764945268631,-1.2737152576446533
1729250002284716300,10.61571630859375,8.849268913269043,0.0694318488240242,-1.0414776802062988
1729250002294716400,10.62571630859375,8.813355445861816,0.12210428714752197,-0.7924807667732239
1729250002304716300,10.63571630859375,8.873210906982422,0.1412578970193863,-0.6368576288223267
1729250002314716400,10.64571630859375,8.8971529006958,0.07182604819536209,-0.5482721924781799
1729250002324716000,10.655716064453125,8.856451034545898,0.033518824726343155,-0.5051765441894531
1729250002334716000,10.6657158203125,8.849268913269043,0.08379705995321274,-0.42616790533065796
1729250002344716000,10.675716064453125,8.95461368560791,0.1388636976480484,-0.23702596127986908
1729250002354716000,10.6857158203125,9.004891395568848,0.19393034279346466,-0.1604115068912506
1729250002364715800,10.6957158203125,9.007286071777344,0.24899697303771973,-0.12210428714752197
1729250002374715600,10.705715576171874,8.95461368560791,0.33997663855552673,-0.08858546614646912
1729250002384716000,10.715716064453124,8.925883293151855,0.45250412821769714,-0.016759412363171577
1729250002394716000,10.7257158203125,8.95461368560791,0.6105214357376099,0.002394201699644327
1729250002404716000,10.735716064453126,8.928277015686035,0.727837324142456,0.043095629662275314
1729250002414716400,10.74571630859375,8.880393028259277,0.8619126081466675,0.10534487664699554
1729250002424716500,10.755716552734375,8.92348861694336,1.0654197931289673,0.28730419278144836
1729250002434716700,10.765716552734375,8.995314598083496,1.1659762859344482,0.4189853072166443
1729250002444716500,10.775716552734375,9.146149635314941,1.1348515748977661,0.5027823448181152
1729250002454716700,10.785716552734375,9.253889083862305,1.0534487962722778,0.5434837937355042
1729250002464716500,10.795716552734374,9.280224800109863,0.9624691009521484,0.5770025849342346
1729250002474716400,10.80571630859375,9.306561470031738,0.9457096457481384,0.5770025849342346
1729250002484716000,10.815716064453126,9.34965705871582,0.9361328482627869,0.4884171485900879
1729250002494716200,10.825716064453125,9.34965705871582,0.933738648891449,0.45489832758903503
1729250002504716000,10.835716064453125,9.419088363647461,0.9313444495201111,0.524330198764801
1729250002514716200,10.845716064453125,9.522039413452148,0.9313444495201111,0.6368576288223267
1729250002524716300,10.85571630859375,9.74470043182373,0.8738836050033569,0.727837324142456
1729250002534716200,10.865716064453125,9.938630104064941,0.730231523513794,0.7637503147125244
1729250002544716300,10.87571630859375,10.070311546325684,0.6057330369949341,0.8355764150619507
1729250002554716200,10.885716064453124,10.237905502319336,0.6799532771110535,0.9696516990661621
1729250002564716300,10.89571630859375,10.496479988098145,0.5482721924781799,1.0342950820922852
1729250002574716000,10.9057158203125,10.656890869140625,0.4812345504760742,0.993593692779541
1729250002584715800,10.9157158203125,10.721534729003906,0.5793967843055725,1.0438719987869263
1729250002594716000,10.9257158203125,10.793360710144043,0.5578489899635315,1.072602391242981
1729250002604716300,10.93571630859375,10.953771591186523,0.5937620401382446,1.1324573755264282
1729250002614716200,10.945716064453125,11.123760223388672,0.646434485912323,1.1228805780410767
1729250002624716300,10.95571630859375,11.186009407043457,0.7326257228851318,1.1013327836990356
1729250002634716200,10.965716064453124,11.140520095825195,0.7972691655158997,1.048660397529602
1729250002644716300,10.97571630859375,11.097424507141113,0.8379706144332886,1.0558429956436157
1729250002654716200,10.985716064453126,11.243470191955566,0.8978256583213806,1.1516109704971313
1729250002664716300,10.99571630859375,11.516409873962402,0.9433154463768005,1.280897855758667
1729250002674716400,11.00571630859375,11.83962631225586,0.9002198576927185,1.3886369466781616
1729250002684716300,11.01571630859375,11.952154159545898,0.7422025203704834,1.41257905960083
1729250002694716400,11.02571630859375,11.81568431854248,0.6200982332229614,1.359906554222107
1729250002704716300,11.03571630859375,11.612177848815918,0.4381389021873474,1.4676456451416016
1729250002714716000,11.0457158203125,11.549928665161133,0.19632454216480255,1.7741034030914307
1729250002724715500,11.055715576171876,11.722311019897461,-0.12689268589019775,2.1595699787139893
1729250002734715600,11.065715576171876,12.203545570373535,-0.5578489899635315,2.47560453414917
1729250002744715500,11.075715576171875,12.543521881103516,-0.7661445140838623,2.691082715988159
1729250002754715600,11.085715576171875,12.648866653442383,-1.5155296325683594,2.695871114730835
1729250002764715500,11.095715576171875,12.47887897491455,-2.212242364883423,2.300827741622925
1729250002774716000,11.1057158203125,11.968914031982422,-2.6024973392486572,1.8124107122421265
1729250002784716300,11.11571630859375,11.535563468933105,-2.6671407222747803,1.4867992401123047
1729250002794716400,11.12571630859375,11.087847709655762,-2.454056739807129,1.213860273361206
1729250002804716300,11.13571630859375,10.47253704071045,-1.8315643072128296,1.161187767982483
1729250002814716400,11.14571630859375,9.945813179016113,-1.2665326595306396,1.2210428714752197
1729250002824716300,11.15571630859375,9.375992774963379,-0.7206547260284424,1.2856862545013428
1729250002834716200,11.165716064453125,8.928277015686035,-0.1412578970193863,1.2689268589019775
1729250002844716300,11.17571630859375,8.516474723815918,0.3519476354122162,1.235408067703247
1729250002854716200,11.185716064453125,8.123826026916504,0.7781155705451965,1.2713210582733154
1729250002864716300,11.19571630859375,7.803002834320068,1.1444283723831177,1.3048399686813354
1729250002874716200,11.205716064453124,7.66653299331665,1.3886369466781616,1.2641384601593018
1729250002884716300,11.21571630859375,7.606678009033203,1.5514427423477173,1.1492167711257935
1729250002894716200,11.225716064453126,7.534852027893066,1.6711528301239014,0.9983820915222168
1729250002904716300,11.23571630859375,7.549217224121094,1.7501614093780518,0.9050082564353943
1729250002914716700,11.245716552734375,7.609072208404541,1.8363527059555054,0.8236053586006165
1729250002924716500,11.255716552734375,7.71202278137207,1.8842366933822632,0.7709329724311829
1729250002934716700,11.265716552734375,7.879617214202881,1.9632453918457031,0.8140285611152649
1729250002944716500,11.275716552734375,7.970596790313721,1.9967641830444336,0.7661445140838623
1729250002954716700,11.285716552734375,8.008903503417969,2.0853497982025146,0.6344634294509888
1729250002964716800,11.295716796875,8.19565200805664,2.121262788772583,0.6057330369949341
1729250002974717000,11.305717041015624,8.463802337646484,2.1092917919158936,0.6368576288223267
1729250002984716500,11.315716552734376,8.61463737487793,2.1499931812286377,0.7015010714530945
1729250002994716400,11.32571630859375,8.672098159790039,2.27209734916687,0.6512228846549988
1729250003004716500,11.335716552734375,8.712799072265625,2.389413356781006,0.5985504388809204
1729250003014716400,11.34571630859375,8.825326919555664,2.4851813316345215,0.6847416758537292
1729250003024716800,11.355716796875,9.06714153289795,2.52109432220459,0.7852981686592102
1729250003034717000,11.365717041015625,9.280224800109863,2.5115175247192383,0.8427590131759644
1729250003044716800,11.375716796875,9.601048469543457,2.497152328491211,0.912190854549408
1729250003054717000,11.385717041015624,9.775824546813965,2.4396915435791016,0.9840168952941895
1729250003064716800,11.395716796875,9.988908767700195,2.346317768096924,1.0869675874710083
1729250003074716400,11.40571630859375,10.441412925720215,2.2912509441375732,1.158793568611145
1729250003084716000,11.415716064453125,10.910676002502441,2.2242133617401123,1.2282254695892334
1729250003094716200,11.425716064453125,11.20276927947998,2.1954829692840576,1.237802267074585
1729250003104716000,11.435716064453125,11.41824722290039,2.0590133666992188,1.1180921792984009
1729250003114716200,11.445716064453125,11.583447456359863,1.9584569931030273,0.9313444495201111
1729250003124716000,11.455716064453124,11.784560203552246,1.900996208190918,0.7445967197418213
1729250003134716200,11.465716064453124,12.012009620666504,1.965639591217041,0.6344634294509888
1729250003144715800,11.4757158203125,12.215516090393066,1.8938134908676147,0.5770025849342346
1729250003154715600,11.485715576171875,12.342409133911133,1.7597382068634033,0.42616790533065796
1729250003164715800,11.4957158203125,12.311284065246582,1.7310078144073486,0.24899697303771973
1729250003174716000,11.5057158203125,12.39029312133789,1.7334020137786865,0.043095629662275314
1729250003184715800,11.5157158203125,12.304101943969727,1.7884687185287476,-0.0933738648891449
1729250003194716000,11.5257158203125,12.205939292907715,1.8291701078414917,-0.181959331035614
1729250003204715800,11.5357158203125,12.165238380432129,1.8339585065841675,-0.22266076505184174
1729250003214715400,11.54571533203125,12.263400077819824,1.9393033981323242,-0.3495534360408783
1729250003224715500,11.555715576171876,12.308890342712402,2.0207061767578125,-0.5386953949928284
1729250003234715400,11.56571533203125,12.189180374145508,2.0590133666992188,-0.7230489253997803
1729250003244715500,11.575715576171875,12.009614944458008,2.0614075660705566,-0.8092401623725891
1729250003254715400,11.58571533203125,11.830049514770508,1.9105730056762695,-0.8212111592292786
1729250003264715500,11.595715576171875,11.933000564575195,1.4484920501708984,-0.7469909191131592
1729250003274716000,11.6057158203125,12.251429557800293,0.7230489253997803,-0.6129156351089478
1729250003284715800,11.6157158203125,12.6273193359375,0.12928688526153564,-0.4620809257030487
1729250003294716000,11.6257158203125,12.873921394348145,-0.5267243981361389,-0.43095630407333374
1729250003304715800,11.6357158203125,12.668020248413086,-1.3623007535934448,-0.6057330369949341
1729250003314716000,11.6457158203125,12.196362495422363,-1.9249382019042969,-0.9983820915222168
1729250003324715800,11.6557158203125,11.631331443786621,-2.1475989818573,-1.4053963422775269
1729250003334716000,11.6657158203125,11.001656532287598,-1.8986018896102905,-1.6759412288665771
1729250003344715800,11.6757158203125,10.424653053283691,-1.4700398445129395,-1.7286136150360107
1729250003354716000,11.6857158203125,10.058341026306152,-1.1109095811843872,-1.599326729774475
1729250003364715800,11.6957158203125,9.71357536315918,-0.7398083209991455,-1.3479355573654175
1729250003374716000,11.7057158203125,9.452607154846191,-0.4884171485900879,-0.9097966551780701
1729250003384716300,11.71571630859375,9.308955192565918,-0.33997663855552673,-0.3974374830722809
1729250003394716200,11.725716064453126,9.196428298950195,-0.2322375625371933,0.021547814831137657
1729250003404716300,11.73571630859375,9.117419242858887,-0.26096799969673157,0.2561795711517334
1729250003414716700,11.745716552734375,9.052776336669922,-0.23942017555236816,0.38546648621559143
1729250003424716500,11.755716552734375,8.98813247680664,-0.17956513166427612,0.4381389021873474
1729250003434716700,11.765716552734375,8.813355445861816,-0.05985504388809204,0.44532153010368347
1729250003444716500,11.775716552734375,8.619425773620605,0.14604631066322327,0.5147533416748047
1729250003454716700,11.785716552734375,8.52365779876709,0.304063618183136,0.5937620401382446
1729250003464716500,11.795716552734374,8.451830863952637,0.42856210470199585,0.569819986820221
1729250003474716400,11.80571630859375,8.399158477783203,0.7206547260284424,0.569819986820221
1729250003484716500,11.815716552734376,8.296208381652832,0.9457096457481384,0.730231523513794
1729250003494716400,11.82571630859375,8.25550651550293,1.1540051698684692,0.8906430602073669
1729250003504716000,11.835716064453125,8.241141319274902,1.3551181554794312,0.9983820915222168
1729250003514716200,11.845716064453125,8.23156452178955,1.4844050407409668,1.0821791887283325
1729250003524716300,11.85571630859375,8.257901191711426,1.5873557329177856,1.1827356815338135
1729250003534716200,11.865716064453125,8.248324394226074,1.7262194156646729,1.2042834758758545
1729250003544716300,11.87571630859375,8.193257331848145,1.8124107122421265,1.161187767982483
1729250003554716200,11.885716064453124,8.205228805541992,1.8076223134994507,1.0630255937576294
1729250003564715800,11.8957158203125,8.300996780395508,1.764526605606079,0.9720458984375
1729250003574715400,11.90571533203125,8.365639686584473,1.7142484188079834,1.0055646896362305
1729250003584715500,11.915715576171875,8.403946876525879,1.7286136150360107,1.0007762908935547
1729250003594715400,11.92571533203125,8.43507194519043,1.7310078144073486,0.9959878921508789
1729250003604715500,11.935715576171875,8.516474723815918,1.7166426181793213,1.0223240852355957
1729250003614715400,11.94571533203125,8.605060577392578,1.7070658206939697,1.091755986213684
1729250003624715500,11.955715576171874,8.803778648376465,1.6831238269805908,1.1875240802764893
1729250003634715400,11.96571533203125,8.971372604370117,1.647210717201233,1.3479355573654175
1729250003644715500,11.975715576171876,9.093477249145508,1.6065093278884888,1.5155296325683594
1729250003654715400,11.98571533203125,9.455001831054688,1.534683346748352,1.6903064250946045
1729250003664715500,11.995715576171875,9.85962200164795,1.4413094520568848,1.7405846118927002
1729250003674715600,12.005715576171875,10.194809913635254,1.2617442607879639,1.8148049116134644
1729250003684715500,12.015715576171875,10.601824760437012,1.036689281463623,1.8579005002975464
1729250003694715600,12.025715576171875,11.059117317199707,0.7876923680305481,1.7573440074920654
1729250003704715500,12.035715576171874,11.408670425415039,0.5171475410461426,1.4867992401123047
1729250003714715100,12.045715087890626,11.492467880249023,0.5123591423034668,1.290474772453308
1729250003724715300,12.05571533203125,11.593024253845215,0.524330198764801,1.015141487121582
1729250003734715100,12.065715087890625,11.547533988952637,0.48602294921875,0.8164227604866028
1729250003744715500,12.075715576171875,11.4972562789917,0.5027823448181152,0.6967126727104187
1729250003754715600,12.085715576171875,11.71273422241211,0.6200982332229614,0.7158663272857666
1729250003764715500,12.095715576171875,12.031163215637207,0.7134721279144287,0.8643068075180054
1729250003774716000,12.1057158203125,12.256217956542969,0.667982280254364,1.05105459690094
1729250003784716000,12.115716064453125,12.442965507507324,0.4165911078453064,1.280897855758667
1729250003794716000,12.1257158203125,12.59619426727295,0.05506663769483566,1.699883222579956
1729250003804716000,12.135716064453124,13.015179634094238,-0.2944868206977844,2.1499931812286377
1729250003814716000,12.1457158203125,13.4197998046875,-0.6272808313369751,2.5474305152893066
1729250003824715800,12.1557158203125,13.84836196899414,-1.4221558570861816,2.7700912952423096
1729250003834716000,12.1657158203125,14.329596519470215,-2.2242133617401123,2.5785553455352783
1729250003844715800,12.1757158203125,14.264952659606934,-2.7772738933563232,2.1499931812286377
1729250003854716000,12.1857158203125,13.788506507873535,-3.1220390796661377,1.6735470294952393
1729250003864715800,12.1957158203125,13.087005615234375,-3.1747114658355713,1.2952631711959839
1729250003874716000,12.2057158203125,12.170026779174805,-2.5067291259765625,1.1228805780410767
1729250003884715800,12.2157158203125,11.303325653076172,-1.7741034030914307,1.278503656387329
1729250003894716000,12.2257158203125,10.647314071655273,-1.1803414821624756,1.501164436340332
1729250003904715800,12.2357158203125,10.125378608703613,-0.43335050344467163,1.7070658206939697
1729250003914716200,12.245716064453125,9.52922248840332,0.26575639843940735,1.8842366933822632
1729250003924716300,12.25571630859375,8.952219009399414,0.828393816947937,2.0661959648132324
1729250003934716200,12.265716064453125,8.5595703125,1.2617442607879639,2.188300371170044
1729250003944716300,12.27571630859375,8.25311279296875,1.4915876388549805,2.233790159225464
1729250003954716200,12.285716064453124,8.032846450805664,1.6400281190872192,2.166752576828003
1729250003964716300,12.29571630859375,7.90355920791626,1.6687586307525635,2.0183119773864746
1729250003974716400,12.30571630859375,7.814973831176758,1.5442601442337036,1.800439715385437
1729250003984716500,12.315716552734376,7.84609842300415,1.4053963422775269,1.4891934394836426
1729250003994716400,12.32571630859375,7.860463619232178,1.2832920551300049,1.1827356815338135
1729250004004716500,12.335716552734375,7.834127426147461,1.1516109704971313,0.9026140570640564
1729250004014716400,12.34571630859375,7.884405612945557,1.0534487962722778,0.6847416758537292
1729250004024716500,12.355716552734375,7.90355920791626,1.039083480834961,0.5602431893348694
1729250004034716700,12.365716552734375,7.9083476066589355,1.0773907899856567,0.47884035110473633
1729250004044716300,12.37571630859375,7.855675220489502,1.2018892765045166,0.4357447028160095
1729250004054716200,12.385716064453124,7.8437042236328125,1.3623007535934448,0.3902548849582672
1729250004064716300,12.39571630859375,7.8867998123168945,1.5107412338256836,0.40701428055763245
1729250004074716000,12.4057158203125,7.9538373947143555,1.699883222579956,0.48602294921875
1729250004084716000,12.415716064453125,8.049605369567871,1.8363527059555054,0.45010992884635925
1729250004094716000,12.4257158203125,8.207622528076172,1.9967641830444336,0.3423708379268646
1729250004104716000,12.435716064453125,8.4015531539917,2.1068975925445557,0.2992752194404602
1729250004114716000,12.4457158203125,8.674491882324219,2.1284453868865967,0.2944868206977844
1729250004124716000,12.455716064453124,8.861239433288574,2.1380221843719482,0.22505496442317963
1729250004134716000,12.4657158203125,9.083900451660156,2.169146776199341,0.16759411990642548
1729250004144716000,12.475716064453126,9.421483039855957,2.1930887699127197,0.12928688526153564
1729250004154716000,12.4857158203125,9.909899711608887,2.1571757793426514,0.2082955539226532
1729250004164716000,12.495716064453125,10.240300178527832,2.0446481704711914,0.3016694188117981
1729250004174716200,12.505716064453125,10.53718090057373,2.032677173614502,0.2585737705230713
1729250004184716000,12.515716064453125,10.778995513916016,2.1308395862579346,0.13168109953403473
1729250004194716200,12.525716064453125,10.972926139831543,2.183511972427368,0.038307227194309235
1729250004204716500,12.535716552734375,11.178827285766602,2.2170307636260986,0.05267243832349777
1729250004214716200,12.545716064453124,11.583447456359863,2.185906171798706,0.19632454216480255
1729250004224715800,12.5557158203125,12.055105209350586,1.9321208000183105,0.2513911724090576
1729250004234715600,12.565715576171876,12.490849494934082,1.6903064250946045,0.18914192914962769
1729250004244715800,12.5757158203125,12.871527671813965,1.4963760375976562,0.1173158809542656
1729250004254715600,12.585715576171875,13.230657577514648,1.3048399686813354,0.0694318488240242
1729250004264716000,12.595716064453125,13.38867473602295,1.3311761617660522,0.05027823522686958
1729250004274716200,12.605716064453125,13.32882022857666,1.0869675874710083,-0.12210428714752197
1729250004284715800,12.6157158203125,13.254599571228027,0.9720458984375,-0.44532153010368347
1729250004294715600,12.625715576171874,13.266571044921875,1.0031704902648926,-0.7230489253997803
1729250004304715800,12.6357158203125,13.180379867553711,1.2042834758758545,-0.9193734526634216
1729250004314715600,12.645715576171876,12.893074989318848,1.4317326545715332,-1.173158884048462
1729250004324716000,12.655716064453125,12.531551361083984,1.5418659448623657,-1.3311761617660522
1729250004334716000,12.6657158203125,12.165238380432129,1.5514427423477173,-1.3503297567367554
1729250004344716000,12.675716064453125,11.968914031982422,1.3455413579940796,-1.2234370708465576
1729250004354716000,12.6857158203125,12.064682006835938,0.8523358106613159,-1.0079588890075684
1729250004364715800,12.6957158203125,12.32564926147461,0.22266076505184174,-0.7445967197418213
1729250004374716000,12.7057158203125,12.39029312133789,-0.4357447028160095,-0.6177040338516235
1729250004384716300,12.71571630859375,12.411840438842773,-0.993593692779541,-0.6655880808830261
1729250004394716200,12.725716064453126,12.160449981689453,-1.1803414821624756,-0.7733271718025208
1729250004404716300,12.73571630859375,11.557110786437988,-1.4413094520568848,-0.9624691009521484
1729250004414716700,12.745716552734375,11.061511039733887,-1.3527239561080933,-1.2018892765045166
1729250004424716500,12.755716552734375,10.498873710632324,-1.01753568649292,-1.3120225667953491
1729250004434716700,12.765716552734375,10.113407135009766,-0.6991068720817566,-1.256955862045288
1729250004444716500,12.775716552734375,9.74709415435791,-0.3232172429561615,-1.0630255937576294
1729250004454716700,12.785716552734375,9.426271438598633,-0.09576806426048279,-0.7182605266571045
1729250004464716500,12.795716552734374,9.251494407653809,0.033518824726343155,-0.4165911078453064
1729250004474716400,12.80571630859375,9.196428298950195,0.08379705995321274,-0.21787235140800476
1729250004484716500,12.815716552734376,9.04559326171875,0.2513911724090576,-0.05506663769483566
1729250004494716400,12.82571630859375,8.86602783203125,0.304063618183136,0.09576806426048279
1729250004504716000,12.835716064453125,8.712799072265625,0.38067805767059326,0.11971008777618408
1729250004514716200,12.845716064453125,8.621819496154785,0.45010992884635925,0.15562310814857483
1729250004524716300,12.85571630859375,8.619425773620605,0.5219359993934631,0.2298433631658554
1729250004534716200,12.865716064453125,8.511686325073242,0.6823474764823914,0.2537853717803955
1729250004544716300,12.87571630859375,8.372822761535645,0.8020575642585754,0.2753331959247589
1729250004554716200,12.885716064453124,8.28902530670166,0.9145850539207458,0.2992752194404602
1729250004564716300,12.89571630859375,8.353669166564941,1.1300631761550903,0.4141969084739685
1729250004574716000,12.9057158203125,8.368034362792969,1.3407529592514038,0.507570743560791
1729250004584715800,12.9157158203125,8.356062889099121,1.3886369466781616,0.5363011956214905
1729250004594716000,12.9257158203125,8.341697692871094,1.4963760375976562,0.49799394607543945
1729250004604716300,12.93571630859375,8.363245964050293,1.6663644313812256,0.5219359993934631
1729250004614716200,12.945716064453125,8.47098445892334,1.7956513166427612,0.5722141861915588
1729250004624716000,12.955716064453124,8.535628318786621,1.8267759084701538,0.6272808313369751
1729250004634716000,12.9657158203125,8.514080047607422,1.9105730056762695,0.629675030708313
1729250004644716000,12.975716064453126,8.52365779876709,1.9943699836730957,0.7374141216278076
1729250004654716000,12.9857158203125,8.538022994995117,2.0422539710998535,0.730231523513794
1729250004664716000,12.995716064453125,8.547599792480469,2.030282974243164,0.6488286852836609
1729250004674716200,13.005716064453125,8.679280281066895,1.9967641830444336,0.6512228846549988
1729250004684716000,13.015716064453125,8.77265453338623,1.98958158493042,0.6823474764823914
1729250004694716200,13.025716064453125,8.858845710754395,1.968033790588379,0.7445967197418213
1729250004704716000,13.035716064453124,8.952219009399414,1.9369091987609863,0.8475474119186401
1729250004714715600,13.045715576171874,9.028834342956543,1.965639591217041,0.9313444495201111
1729250004724715800,13.0557158203125,9.155726432800293,1.968033790588379,1.0223240852355957
1729250004734715600,13.065715576171876,9.459790229797363,1.968033790588379,1.2210428714752197
1729250004744716000,13.075716064453125,9.703998565673828,2.0398597717285156,1.414973258972168
1729250004754716200,13.085716064453125,9.890746116638184,2.0901381969451904,1.5897499322891235
1729250004764716000,13.095716064453125,10.099041938781738,2.1356279850006104,1.7094600200653076
1729250004774716200,13.105716064453125,10.209175109863281,2.0685901641845703,1.7908629179000854
1729250004784716000,13.115716064453125,10.422259330749512,1.9488801956176758,1.8579005002975464
1729250004794716200,13.125716064453124,10.879551887512207,1.6903064250946045,1.920149803161621
1729250004804715500,13.135715576171876,11.32966136932373,1.4077905416488647,1.8986018896102905
1729250004814715600,13.145715576171876,11.741464614868164,1.161187767982483,1.8267759084701538
1729250004824715500,13.155715576171875,12.01919174194336,1.0127472877502441,1.7573440074920654
1729250004834715600,13.165715576171875,12.009614944458008,0.9481038451194763,1.7717092037200928
1729250004844715500,13.175715576171875,12.081440925598145,0.9289502501487732,1.8722656965255737
1729250004854715600,13.185715576171875,12.184391975402832,1.0295066833496094,1.941697597503662
1729250004864715300,13.19571533203125,12.306495666503906,1.235408067703247,1.987187385559082
1729250004874715100,13.205715087890624,12.280159950256348,1.4173674583435059,1.9512743949890137
1729250004884715300,13.21571533203125,11.944971084594727,1.4437036514282227,1.9273324012756348
1729250004894715100,13.225715087890626,11.743858337402344,1.3407529592514038,1.9153614044189453
1729250004904714800,13.23571484375,11.8132905960083,1.0558429956436157,1.9512743949890137
1729250004914715100,13.245715087890625,12.148478507995605,0.5506663918495178,1.9847931861877441
1729250004924715500,13.255715576171875,12.586617469787598,-0.1867477297782898,2.0685901641845703
1729250004934715400,13.26571533203125,13.11334228515625,-0.9289502501487732,2.1356279850006104
