Timestamp,seconds_elapsed,AccelerationZ,AccelerationY,AccelerationX
1729260574556450300,0.0504501953125,12.315857887268066,3.827319860458374,-2.9730820655822754
1729260574566033200,0.060033203125,12.155538558959961,3.899104595184326,-4.651647090911865
1729260574575616000,0.069615966796875,10.752148628234863,3.8763725757598877,-5.694917678833008
1729260574585198800,0.07919873046875,8.82951545715332,3.583251953125,-5.325226783752441
1729260574594781700,0.08878173828125,5.941378593444824,2.7804598808288574,-4.043870449066162
1729260574604364500,0.098364501953125,3.078366279602051,1.2873386144638062,-1.719243049621582
1729260574613947400,0.107947509765625,4.264009952545166,-0.44386860728263855,0.8482556343078613
1729260574623530200,0.1175302734375,5.341976642608643,-1.3304094076156616,2.585444927215576
1729260574633112800,0.12711279296875,6.872186660766602,-1.4691931009292603,3.008974552154541
1729260574642695700,0.13669580078125,8.291130065917969,-0.605384111404419,3.0831520557403564
1729260574652278500,0.146278564453125,8.668000221252441,0.20817556977272034,2.895315408706665
1729260574661861400,0.155861328125,8.0291166305542,1.073180913925171,2.482553482055664
1729260574671444200,0.1654443359375,7.165307521820068,2.2193429470062256,3.1238300800323486
1729260574681027000,0.175027099609375,6.673582553863525,4.18145751953125,9.023334503173828
1729260574690610000,0.18460986328125,7.110272407531738,4.576273441314697,12.004791259765625
1729260574700192800,0.19419287109375,6.641279220581055,1.3651052713394165,5.635097503662109
1729260574709775600,0.203775634765625,9.008976936340332,-1.0133603811264038,2.0853450298309326
1729260574719358500,0.2133583984375,12.016755104064941,-2.4155545234680176,0.019142581149935722
1729260574728941300,0.22294140625,14.373685836791992,-2.3976082801818848,-1.1485549211502075
1729260574738524200,0.232524169921875,16.939987182617188,-1.7563318014144897,-1.6055840253829956
1729260574748107000,0.24210693359375,22.80240249633789,-1.4679967164993286,-0.5312066078186035
1729260574757689900,0.25168994140625,21.306888580322266,-0.9116654396057129,0.25004997849464417
1729260574767272700,0.261272705078125,16.0582332611084,-0.6448656916618347,-0.7334001660346985
1729260574776855600,0.27085546875,13.85085391998291,0.1256231814622879,-1.537388563156128
1729260574786438100,0.280438232421875,11.989237785339355,1.1736794710159302,-0.7322037220001221
1729260574796021000,0.29002099609375,9.516255378723145,1.919043779373169,0.17347964644432068
1729260574805603800,0.299603759765625,7.7252278327941895,1.6869399547576904,0.9092726111412048
1729260574815186700,0.309186767578125,7.435696601867676,0.9056833982467651,2.203789710998535
1729260574824769500,0.31876953125,7.302894592285156,0.4977070987224579,2.1535403728485107
1729260574834352400,0.328352294921875,7.237092018127441,0.5611169338226318,1.6618152856826782
1729260574843935200,0.337935302734375,7.246663570404053,0.7046862840652466,1.4261223077774048
1729260574853518000,0.34751806640625,7.5565338134765625,0.9966106414794922,0.4450650215148926
1729260574863101000,0.357100830078125,8.26241683959961,0.9810572862625122,-0.9068797826766968
1729260574872683800,0.366683837890625,7.70249605178833,-0.6484549641609192,-5.185246467590332
1729260574882266600,0.3762666015625,7.891529083251953,0.02392822690308094,-4.794020175933838
1729260574891849500,0.385849365234375,8.952746391296387,1.836491346359253,-2.8043880462646484
1729260574901432300,0.395432373046875,10.411170959472656,4.013959884643555,-0.08374879509210587
1729260574911015200,0.40501513671875,11.01416301727295,4.981856822967529,2.2887349128723145
1729260574920598000,0.414597900390625,10.1276216506958,3.5784661769866943,3.730410575866699
1729260574930180900,0.424180908203125,8.443074226379395,1.537388563156128,3.7543387413024902
1729260574939763700,0.433763671875,6.6352972984313965,0.4498506486415863,3.768695592880249
1729260574949346600,0.4433466796875,6.754938125610352,0.22133609652519226,3.85483717918396
1729260574958929400,0.452929443359375,7.05763053894043,-0.20817556977272034,3.70767879486084
1729260574968512000,0.462511962890625,6.4905314445495605,-1.7395820617675781,3.346362352371216
1729260574978094800,0.4720947265625,7.284948348999023,-1.3603196144104004,3.3415768146514893
1729260574987677700,0.481677734375,8.947959899902344,-0.17706887423992157,2.117648124694824
1729260574997260500,0.491260498046875,9.929018020629883,0.4091726839542389,-0.2679961323738098
1729260575006843400,0.500843505859375,10.285548210144043,0.6305087804794312,-2.2265214920043945
1729260575016426200,0.51042626953125,10.86700439453125,0.729810893535614,-3.451646566390991
1729260575026009000,0.520009033203125,11.656635284423828,0.6508477330207825,-3.689732551574707
1729260575035592000,0.529592041015625,12.004791259765625,0.24406790733337402,-3.7842490673065186
1729260575045174800,0.5391748046875,12.308679580688477,0.24406790733337402,-2.4335005283355713
1729260575054757600,0.548757568359375,12.788440704345703,0.4378865361213684,-1.1234302520751953
1729260575064340500,0.558340576171875,12.628121376037598,0.41156548261642456,-1.1066805124282837
1729260575073923300,0.56792333984375,11.674581527709961,0.28235307335853577,-1.7587246894836426
1729260575083506200,0.577506103515625,10.366904258728027,0.25004997849464417,-2.0985054969787598
1729260575093088800,0.5870888671875,9.223134994506836,0.2548356056213379,-1.550549030303955
1729260575102672000,0.596671875,8.539983749389648,0.17108681797981262,-0.8231309652328491
1729260575112254700,0.606254638671875,8.459824562072754,0.064606212079525,-0.2105683982372284
1729260575121837300,0.61583740234375,8.934800148010254,0.059820566326379776,-0.09451649338006973
1729260575131420200,0.625420166015625,9.633503913879395,0.10408778488636017,-0.6592226624488831
1729260575141003000,0.6350029296875,10.357333183288574,0.12921242415905,-1.0396814346313477
1729260575150585900,0.6445859375,10.716256141662598,0.1746760457754135,-1.0707881450653076
1729260575160168700,0.654168701171875,10.551151275634766,0.259621262550354,-1.0923235416412354
1729260575169751600,0.66375146484375,10.26042366027832,0.349352091550827,-0.9571290612220764
1729260575179334400,0.67333447265625,10.1216402053833,0.3026920557022095,-0.44745782017707825
1729260575188917200,0.682917236328125,10.13479995727539,-0.035892341285943985,-0.3122633695602417
1729260575198500000,0.6925,10.411170959472656,-0.4247260093688965,-0.5324030518531799
1729260575208083000,0.7020830078125,10.755738258361816,-0.5120640397071838,-0.6963114142417908
1729260575217665800,0.711665771484375,11.162517547607422,-0.1459621787071228,-0.8781659007072449
1729260575227248600,0.72124853515625,11.33360481262207,0.4055834412574768,-1.0600204467773438
1729260575236831500,0.73083154296875,11.094322204589844,0.8889335989952087,-1.2861422300338745
1729260575246414000,0.7404140625,10.638489723205566,1.176072359085083,-1.5230315923690796
1729260575255997200,0.7499970703125,10.186245918273926,1.3591232299804688,-1.2023934125900269
1729260575265580000,0.759580078125,9.717252731323242,1.4488540887832642,-0.5395814776420593
1729260575275162600,0.76916259765625,9.332008361816406,1.4213366508483887,-0.19262222945690155
1729260575284745500,0.778745361328125,9.050851821899414,1.25144624710083,-0.07776673883199692
1729260575294328300,0.788328369140625,8.930013656616211,1.0169496536254883,-0.2356930375099182
1729260575303911200,0.7979111328125,9.08674430847168,0.8721838593482971,-0.5706881880760193
1729260575313494000,0.807493896484375,9.387042999267578,1.0193424224853516,-0.8530412912368774
1729260575323076900,0.817076904296875,9.7064847946167,1.2741780281066895,-1.058824062347412
1729260575332659700,0.82665966796875,9.915857315063477,1.3435698747634888,-1.2191431522369385
1729260575342242600,0.83624267578125,10.047462463378906,1.2945170402526855,-1.1282159090042114
1729260575351825400,0.845825439453125,9.955338478088379,1.1940184831619263,-1.0516455173492432
1729260575361408300,0.855408203125,9.735198974609375,1.179661512374878,-0.8422735929489136
1729260575370991000,0.8649912109375,9.54377269744873,1.0887342691421509,-0.6963114142417908
1729260575380574000,0.874573974609375,9.400203704833984,0.8973084688186646,-0.5120640397071838
1729260575390156800,0.88415673828125,9.416953086853027,0.6652047038078308,-0.364905446767807
1729260575399739400,0.893739501953125,9.718449592590332,0.3445664644241333,-0.4654040038585663
1729260575409322200,0.903322265625,10.06421184539795,0.13878370821475983,-0.6161518096923828
1729260575418905000,0.912905029296875,10.302297592163086,-0.061016976833343506,-0.7262216806411743
1729260575428488000,0.922488037109375,10.408778190612793,-0.2105683982372284,-0.7513462901115417
1729260575438070800,0.93207080078125,10.48534870147705,-0.1746760457754135,-0.882951557636261
1729260575447653600,0.941653564453125,10.560722351074219,-0.016749758273363113,-1.423729419708252
1729260575457236500,0.951236572265625,10.576275825500488,0.32183465361595154,-2.266003131866455
1729260575466819300,0.9608193359375,10.374082565307617,0.8219345808029175,-2.967100143432617
1729260575476402200,0.970402099609375,10.03310489654541,1.2741780281066895,-3.157329559326172
1729260575485985000,0.979985107421875,9.425328254699707,1.6366907358169556,-3.016152858734131
1729260575495568000,0.98956787109375,8.446663856506348,1.7647067308425903,-2.772084951400757
1729260575505150700,0.999150634765625,7.259823799133301,1.7443677186965942,-2.530410051345825
1729260575514733600,1.008733642578125,6.330212116241455,1.3351950645446777,-2.4526431560516357
1729260575524316200,1.018316162109375,5.6554365158081055,0.5575276613235474,-1.399801254272461
1729260575533899300,1.027899169921875,6.117250919342041,-0.5551348328590393,-0.5383850932121277
1729260575543482000,1.037482177734375,7.871190071105957,-1.734796404838562,0.19980068504810333
1729260575553064700,1.047064697265625,10.622936248779297,-1.6199408769607544,0.02273181453347206
1729260575562647600,1.0566474609375,12.53001594543457,0.02751746028661728,-1.7240287065505981
1729260575572230400,1.06623046875,12.06939697265625,1.841277003288269,-4.399204254150391
1729260575581813200,1.075813232421875,9.987641334533691,2.874976396560669,-6.185446739196777
1729260575591396000,1.08539599609375,7.684549808502197,3.0795626640319824,-6.216553211212158
1729260575600979000,1.09497900390625,5.395814895629883,2.328216314315796,-5.247459888458252
1729260575610561800,1.104561767578125,3.1070802211761475,1.3483555316925049,-3.9625144004821777
1729260575620144600,1.11414453125,1.8628123998641968,-0.013160524889826775,-2.517249345779419
1729260575629727500,1.1237275390625,1.6139588356018066,-1.1270195245742798,-1.3722838163375854
1729260575639310300,1.133310302734375,1.1198409795761108,-1.4679967164993286,-0.9427721500396729
1729260575648893200,1.14289306640625,0.4833501875400543,-1.4117653369903564,-2.2265214920043945
1729260575658476000,1.15247607421875,0.656829833984375,-1.7001005411148071,-3.565305709838867
1729260575668059000,1.162058837890625,2.197807550430298,-2.3306093215942383,-3.219542980194092
1729260575677641500,1.171641357421875,3.3068809509277344,-2.9048867225646973,-2.4717857837677
1729260575687224300,1.181224365234375,3.45882511138916,-3.8847475051879883,-2.073380708694458
1729260575696807200,1.19080712890625,2.667997360229492,-4.807180881500244,-1.978864312171936
1729260575706390000,1.20039013671875,0.9116654396057129,-5.820540904998779,-1.0671988725662231
1729260575715972900,1.209972900390625,-1.657029628753662,-7.283751964569092,-0.08973085135221481
1729260575725555700,1.2195556640625,-4.749752998352051,-8.95513916015625,0.4713860750198364
1729260575735138600,1.229138671875,-7.734799385070801,-10.666007041931152,0.794417142868042
1729260575744721400,1.238721435546875,-7.433303356170654,-11.10748291015625,1.4859428405761719
1729260575754304300,1.24830419921875,-6.123233318328857,-12.134003639221191,1.4799607992172241
1729260575763887000,1.25788720703125,-4.671986103057861,-14.79841136932373,1.4093725681304932
1729260575773470000,1.267469970703125,-3.359523057937622,-18.03948974609375,1.1676974296569824
1729260575783052800,1.277052734375,-2.7074787616729736,-20.654844284057617,0.8817551732063293
1729260575792635600,1.2866357421875,-2.1415762901306152,-22.567907333374023,-0.14117653667926788
1729260575802218200,1.29621826171875,-0.6915257573127747,-24.234508514404297,-3.284149169921875
1729260575811801000,1.305801025390625,-1.9824535846710205,-25.68934440612793,-7.046862602233887
1729260575821384200,1.31538427734375,-2.902493953704834,-26.18465805053711,-10.920842170715332
1729260575830966800,1.324966796875,-2.043470621109009,-25.45484733581543,-14.506486892700195
1729260575840549600,1.334549560546875,-0.364905446767807,-24.678377151489258,-16.04387664794922
1729260575850132500,1.344132568359375,1.129412293434143,-24.567110061645508,-16.512868881225586
1729260575859715300,1.35371533203125,3.187239646911621,-25.490739822387695,-17.539390563964844
1729260575869298200,1.363298095703125,5.696114540100098,-26.76252555847168,-18.939191818237305
1729260575878881000,1.372881103515625,8.429914474487305,-26.426332473754883,-20.729022979736328
1729260575888464000,1.3824638671875,10.560722351074219,-24.14956283569336,-24.69153594970703
1729260575898046700,1.392046630859375,11.095519065856934,-20.539989471435547,-28.728229522705078
1729260575907629600,1.401629638671875,10.25922679901123,-16.971094131469727,-30.196226119995117
1729260575917212400,1.41121240234375,8.263612747192383,-13.387843132019043,-30.124441146850586
1729260575926795000,1.420794921875,5.406582832336426,-11.033305168151855,-30.604202270507812
1729260575936378000,1.430378173828125,2.4011974334716797,-11.68295669555664,-30.10888671875
1729260575945961000,1.4399609375,-0.22851456701755524,-13.6175537109375,-26.719453811645508
1729260575955543600,1.44954345703125,-1.0360921621322632,-14.036297798156738,-21.82015037536621
1729260575965126400,1.45912646484375,-0.7501499056816101,-12.750155448913574,-18.29432487487793
1729260575974709200,1.468709228515625,1.26699960231781,-10.512866020202637,-17.269001007080078
1729260575984292000,1.4782919921875,3.3272199630737305,-8.481359481811523,-18.41396713256836
1729260575993875000,1.487875,4.321437835693359,-7.8628153800964355,-20.79841423034668
1729260576003457800,1.497457763671875,4.30588436126709,-8.957531929016113,-21.55095672607422
1729260576013040600,1.50704052734375,1.5194423198699951,-11.781062126159668,-19.317256927490234
1729260576022623500,1.51662353515625,-2.163111686706543,-14.4801664352417,-14.445469856262207
1729260576032206300,1.526206298828125,-8.380861282348633,-15.627524375915527,-7.471588611602783
1729260576041789200,1.5357890625,-19.399808883666992,-15.030515670776367,-0.7154539823532104
1729260576051371800,1.545371826171875,-21.665813446044922,-13.232309341430664,-1.0109676122665405
1729260576060955000,1.554954833984375,-11.599207878112793,-11.398210525512695,-4.737788677215576
1729260576070537700,1.564537841796875,1.231107234954834,-7.098308563232422,-2.895315408706665
1729260576080120300,1.574120361328125,1.8747764825820923,-5.038087844848633,-4.7796630859375
1729260576089703200,1.583703125,0.9332008361816406,-5.577669620513916,-12.275179862976074
1729260576099286000,1.5932861328125,1.1413763761520386,-5.408975601196289,-14.237295150756836
1729260576108868900,1.602868896484375,0.8398807644844055,-4.764110088348389,-12.471391677856445
1729260576118451700,1.61245166015625,-2.0685951709747314,-5.826523303985596,-8.277970314025879
1729260576128034600,1.62203466796875,-0.5730810165405273,-7.597211837768555,-7.263412952423096
1729260576137617400,1.631617431640625,0.12921242415905,-8.798408508300781,-7.0648088455200195
1729260576147200300,1.6412001953125,2.1200408935546875,-8.885746955871582,-6.144768714904785
1729260576156783000,1.650783203125,3.34995174407959,-7.8664045333862305,-4.858626365661621
1729260576170088400,1.66408837890625,4.9052863121032715,-5.182853698730469,-7.381857872009277
1729260576179669000,1.6736689453125,8.195417404174805,-5.0464630126953125,-9.748359680175781
1729260576189251800,1.683251953125,10.214960098266602,-6.496513366699219,-9.930213928222656
1729260576198834700,1.692834716796875,9.475577354431152,-6.546762943267822,-9.872786521911621
1729260576208417500,1.70241748046875,7.216753005981445,-5.699703693389893,-8.056633949279785
1729260576218000400,1.71200048828125,3.2757742404937744,-5.00578498840332,-5.599205017089844
1729260576227583000,1.7215830078125,0.34695929288864136,-4.443471431732178,-2.2612173557281494
1729260576237165800,1.731165771484375,-0.6101697683334351,-3.9984066486358643,-1.0815558433532715
1729260576246748700,1.740748779296875,-0.37088751792907715,-4.230510234832764,-0.39481574296951294
1729260576256331500,1.75033154296875,0.34695929288864136,-5.374279499053955,1.2610175609588623
1729260576265914400,1.759914306640625,0.27756741642951965,-5.383851051330566,-0.7322037220001221
1729260576275497200,1.769497314453125,-0.12203395366668701,-4.244867324829102,-2.1439690589904785
1729260576285080000,1.779080078125,1.0336993932724,-4.0319061279296875,-4.615755081176758
1729260576294663000,1.788662841796875,2.3234307765960693,-4.620540618896484,-3.996013879776001
1729260576304245800,1.798245849609375,3.538984775543213,-5.912664890289307,-2.572284460067749
1729260576313828600,1.80782861328125,4.295116424560547,-7.585247993469238,-1.8424733877182007
1729260576323411500,1.817411376953125,3.3954153060913086,-8.798408508300781,-1.923829436302185
1729260576332994300,1.826994384765625,1.3280165195465088,-9.18843936920166,-2.7876384258270264
1729260576342577200,1.8365771484375,0.14835500717163086,-8.525627136230469,-4.847858905792236
1729260576352159700,1.84615966796875,-0.13878370821475983,-7.144968509674072,-6.58265495300293
1729260576361742600,1.85574267578125,-0.8207381963729858,-5.788238048553467,-7.192824840545654
1729260576371325400,1.865325439453125,-1.6414763927459717,-5.06799840927124,-7.039684295654297
1729260576380908300,1.874908203125,-1.306481122970581,-5.85284423828125,-7.566105365753174
1729260576390491100,1.8844912109375,-0.641276478767395,-6.333801746368408,-6.86261510848999
1729260576400074000,1.894073974609375,-2.2372891902923584,-5.436492919921875,-7.080362319946289
1729260576409656800,1.90365673828125,3.2853455543518066,-7.039684295654297,-6.276373863220215
1729260576419239700,1.91323974609375,5.843272686004639,-7.479963779449463,-7.690532207489014
1729260576428822500,1.922822509765625,5.850451469421387,-7.594819068908691,-8.312665939331055
1729260576438405400,1.9324052734375,4.711467742919922,-8.441878318786621,-8.432307243347168
1729260576447988200,1.94198828125,3.5030922889709473,-8.451449394226074,-8.669196128845215
1729260576457571000,1.951571044921875,2.3617160320281982,-8.018348693847656,-8.432307243347168
1729260576467154000,1.96115380859375,1.5672988891601562,-7.326822757720947,-8.283951759338379
1729260576476736500,1.970736572265625,1.2658032178878784,-6.795616149902344,-7.8388872146606445
1729260576486319600,1.980319580078125,0.7657032608985901,-6.338587284088135,-7.427321434020996
1729260576495902200,1.989902099609375,0.31106695532798767,-6.185446739196777,-7.326822757720947
1729260576505485000,1.999485107421875,0.35413774847984314,-6.620940208435059,-7.920242786407471
1729260576515068000,2.00906787109375,0.41156548261642456,-7.35314416885376,-8.051848411560059
1729260576524650800,2.018650634765625,0.5431707501411438,-7.812565803527832,-8.315058708190918
1729260576534233600,2.028233642578125,1.2251251935958862,-8.415556907653809,-8.671588897705078
1729260576543816400,2.03781640625,1.8759729862213135,-7.817351341247559,-9.990034103393555
1729260576553399300,2.0473994140625,1.6534404754638672,-7.03489875793457,-9.707681655883789
1729260576562982100,2.056982177734375,1.215553879737854,-2.6943182945251465,-5.19960355758667
1729260576572565000,2.06656494140625,0.8135597109794617,-1.1988041400909424,-2.919243574142456
1729260576582147800,2.07614794921875,1.8161523342132568,-1.8185452222824097,-3.014956474304199
1729260576591730700,2.085730712890625,2.280359983444214,-2.5435705184936523,-2.7900311946868896
1729260576601313300,2.095313232421875,1.5649060010910034,-3.8117663860321045,-2.5124638080596924
1729260576610896400,2.104896484375,0.7680960893630981,-5.6446685791015625,-2.0410776138305664
1729260576620479000,2.11447900390625,-0.36610186100006104,-7.317251682281494,-1.4404792785644531
1729260576630061800,2.124061767578125,-1.4189438819885254,-8.489734649658203,-1.332802176475525
1729260576639644700,2.133644775390625,-2.8761727809906006,-9.255437850952148,-1.8592232465744019
1729260576649227500,2.1432275390625,-2.3162522315979004,-9.710074424743652,-2.823530673980713
1729260576658810400,2.152810302734375,1.4883357286453247,-7.927421569824219,-4.802394866943359
1729260576668393200,2.162393310546875,2.2205393314361572,-6.951149940490723,-4.285545349121094
1729260576677976000,2.17197607421875,1.8855443000793457,-5.570491313934326,-3.586841106414795
1729260576687559000,2.181558837890625,1.8855443000793457,-5.190032482147217,-3.840480327606201
1729260576697141800,2.191141845703125,2.6249263286590576,-5.2115678787231445,-3.6873397827148438
1729260576706724600,2.200724609375,1.5601203441619873,-5.292923450469971,-3.304488182067871
1729260576716307500,2.210307373046875,1.7084753513336182,-5.350351333618164,-3.115455150604248
1729260576725890000,2.21989013671875,2.517249345779419,-4.575077056884766,-2.7804598808288574
1729260576735473200,2.22947314453125,1.8137595653533936,-6.0466628074646,-2.179861545562744
1729260576745055700,2.2390556640625,-0.16749759018421173,-8.116454124450684,-1.856830358505249
1729260576754638600,2.248638671875,-2.201396942138672,-14.277973175048828,-1.9357935190200806
1729260576764221400,2.258221435546875,-5.625525951385498,-21.903898239135742,-2.242074728012085
1729260576773804300,2.26780419921875,-7.022934436798096,-28.989046096801758,-1.074377417564392
1729260576783387100,2.27738720703125,-5.907878875732422,-34.60978698730469,2.861815929412842
1729260576792970000,2.286969970703125,-1.3399807214736938,-37.80659866333008,10.365707397460938
1729260576802552800,2.296552734375,2.6464617252349854,-30.159135818481445,10.882556915283203
1729260576812135700,2.3061357421875,5.840879917144775,-18.982261657714844,7.29093074798584
1729260576821718500,2.315718505859375,7.822137355804443,-10.322636604309082,4.455435752868652
1729260576831301400,2.32530126953125,8.499305725097656,-5.1182475090026855,3.177668571472168
1729260576840884200,2.33488427734375,8.15234661102295,-1.4333007335662842,2.493321180343628
1729260576850466800,2.344466796875,6.025127410888672,0.34695929288864136,3.665804386138916
1729260576860050000,2.3540498046875,3.2685956954956055,0.27038896083831787,5.190032482147217
1729260576869632500,2.363632568359375,0.8757730722427368,-0.7561319470405579,6.288337707519531
1729260576879215400,2.37321533203125,-0.4450650215148926,-3.572484254837036,6.4079790115356445
1729260576888798200,2.382798095703125,-0.8111668825149536,-6.123233318328857,6.348158359527588
1729260576898381000,2.392381103515625,-0.8303094506263733,-7.700103282928467,6.333801746368408
1729260576907964000,2.4019638671875,-0.6029912829399109,-8.774480819702148,6.446264266967773
1729260576917546800,2.411546630859375,-0.33020952343940735,-10.047462463378906,6.764509677886963
1729260576927129600,2.421129638671875,-0.038285162299871445,-11.191231727600098,6.805187702178955
1729260576936712400,2.43071240234375,0.5024927258491516,-11.60279655456543,6.259624004364014
1729260576946295300,2.44029541015625,0.8015955686569214,-11.416156768798828,5.0464630126953125
1729260576955878100,2.449878173828125,0.605384111404419,-10.987841606140137,3.596412420272827
1729260576965461000,2.4594609375,0.3565305769443512,-10.370492935180664,2.187039852142334
1729260576975043600,2.469043701171875,0.19621145725250244,-9.767501831054688,1.0456634759902954
1729260576984626700,2.478626708984375,0.17706887423992157,-9.382257461547852,0.6029912829399109
1729260576994209300,2.488209228515625,0.059820566326379776,-9.42054271697998,0.8159525394439697
1729260577003792100,2.497792236328125,0.2919243574142456,-9.482755661010742,1.332802176475525
1729260577013375000,2.507375,0.7680960893630981,-9.640682220458984,1.7491533756256104
1729260577022957800,2.516957763671875,1.4883357286453247,-9.949356079101562,2.0817556381225586
1729260577032540700,2.526540771484375,2.2468605041503906,-10.040284156799316,1.7994025945663452
1729260577042123500,2.53612353515625,2.8426733016967773,-9.978070259094238,1.2418749332427979
1729260577051706400,2.545706298828125,3.2350962162017822,-9.765109062194824,0.9451649188995361
1729260577061289200,2.555289306640625,3.0891339778900146,-9.20279598236084,0.7848458290100098
1729260577070872000,2.5648720703125,3.431307554244995,-9.274580955505371,1.5290136337280273
1729260577080455000,2.574454833984375,3.6059837341308594,-9.241081237792969,2.0985054969787598
1729260577090037800,2.584037841796875,3.5916268825531006,-9.090332984924316,2.3569302558898926
1729260577099620400,2.593620361328125,3.565305709838867,-8.858229637145996,2.416750907897949
1729260577109203500,2.603203369140625,3.562912940979004,-8.685946464538574,2.612962245941162
1729260577118786000,2.6127861328125,3.4959139823913574,-8.547162055969238,2.840280532836914
1729260577128369000,2.622368896484375,3.2925238609313965,-8.506484031677246,3.1441688537597656
1729260577137951700,2.63195166015625,2.9551360607147217,-8.492127418518066,3.311666488647461
1729260577147534600,2.64153466796875,2.5603201389312744,-8.61894702911377,3.328416347503662
1729260577157117400,2.651117431640625,2.2851455211639404,-8.831908226013184,3.263810157775879
1729260577166700300,2.6607001953125,2.084148406982422,-9.1716890335083,3.153740167617798
1729260577176283100,2.670283203125,1.8783657550811768,-9.554540634155273,2.9790642261505127
1729260577185866000,2.679865966796875,1.6654045581817627,-9.841679573059082,2.7397818565368652
1729260577195448800,2.68944873046875,1.430907964706421,-9.908679008483887,2.344966173171997
1729260577205031700,2.69903173828125,1.210768222808838,-9.860821723937988,1.9645073413848877
1729260577214614500,2.708614501953125,1.0887342691421509,-9.760323524475098,1.7443677186965942
1729260577224197400,2.718197265625,1.031306505203247,-9.784252166748047,1.6175481081008911
1729260577233780000,2.727780029296875,1.0456634759902954,-9.8871431350708,1.5385849475860596
1729260577243362800,2.73736279296875,1.2131611108779907,-10.006784439086914,1.5146567821502686
1729260577252945700,2.746945556640625,1.5098711252212524,-10.083354949951172,1.557727575302124
1729260577262528500,2.756528564453125,1.9070796966552734,-10.03549861907959,1.6917256116867065
1729260577272111400,2.766111328125,2.2947168350219727,-9.875179290771484,1.8305093050003052
1729260577281694200,2.775694091796875,2.65842604637146,-9.590433120727539,1.9884356260299683
1729260577291277000,2.785277099609375,2.9958138465881348,-9.279366493225098,2.2085752487182617
1729260577300860000,2.79485986328125,3.2470602989196777,-9.016156196594238,2.4119651317596436
1729260577310442800,2.80444287109375,3.4719855785369873,-8.863015174865723,2.6081767082214355
1729260577320025600,2.814025634765625,3.617947816848755,-8.774480819702148,2.794816732406616
1729260577329608400,2.8236083984375,3.706482172012329,-8.781659126281738,3.0245277881622314
1729260577339191300,2.83319140625,3.675375461578369,-8.819944381713867,3.2781670093536377
1729260577348774100,2.842774169921875,3.517449378967285,-8.963513374328613,3.4480574131011963
1729260577358356700,2.852356689453125,3.2709884643554688,-9.193224906921387,3.6155550479888916
1729260577367939600,2.861939697265625,2.9958138465881348,-9.365508079528809,3.706482172012329
1729260577377522400,2.8715224609375,2.7086751461029053,-9.41336441040039,3.6227335929870605
1729260577387105300,2.881105224609375,2.4335005283355713,-9.279366493225098,3.414557933807373
1729260577396688100,2.890688232421875,2.108076810836792,-9.116654396057129,3.1034910678863525
1729260577406271000,2.90027099609375,1.7778671979904175,-8.9850492477417,2.799602508544922
1729260577415853800,2.909853759765625,1.5864413976669312,-8.949156761169434,2.6009981632232666
1729260577425436700,2.919436767578125,1.5026925802230835,-9.044869422912598,2.5674986839294434
1729260577435019500,2.92901953125,1.526620864868164,-9.186046600341797,2.5938198566436768
1729260577444602400,2.938602294921875,1.667797327041626,-9.324830055236816,2.6009981632232666
1729260577454185200,2.948185302734375,1.8831514120101929,-9.456435203552246,2.5674986839294434
1729260577463768000,2.95776806640625,2.1296122074127197,-9.56650447845459,2.478964328765869
1729260577473351000,2.967350830078125,2.3473589420318604,-9.556933403015137,2.313859462738037
1729260577482933500,2.97693359375,2.5052852630615234,-9.410971641540527,2.0793628692626953
1729260577492516400,2.986516357421875,2.5531418323516846,-9.214759826660156,1.919043779373169
1729260577502099200,2.99609912109375,2.4837498664855957,-9.08554744720459,1.8496519327163696
1729260577511682000,3.00568212890625,2.2636101245880127,-9.028120040893555,1.8975083827972412
1729260577521265000,3.015264892578125,2.203789710998535,-9.028120040893555,2.045863389968872
1729260577530847700,3.02484765625,2.3018953800201416,-8.97787094116211,2.227717876434326
1729260577540430600,3.0344306640625,2.3952155113220215,-8.970691680908203,2.3856441974639893
1729260577550013400,3.044013427734375,2.423929452896118,-8.944371223449707,2.610569477081299
1729260577559596300,3.05359619140625,2.3808584213256836,-8.879764556884766,2.8115665912628174
1729260577569179100,3.06317919921875,2.297109842300415,-8.776873588562012,2.974278450012207
1729260577578762000,3.072761962890625,2.2636101245880127,-8.700303077697754,3.084348440170288
1729260577588344800,3.0823447265625,2.2947168350219727,-8.676374435424805,3.2374889850616455
1729260577597927700,3.091927734375,2.344966173171997,-8.709874153137207,3.428914785385132
1729260577607510500,3.101510498046875,2.445464849472046,-8.748159408569336,3.6059837341308594
1729260577617093000,3.111093017578125,2.50289249420166,-8.882157325744629,3.641875982284546
1729260577626676000,3.120676025390625,2.4909284114837646,-8.95394229888916,3.431307554244995
1729260577636258800,3.1302587890625,2.4358935356140137,-9.078369140625,3.0556344985961914
1729260577645841700,3.139841552734375,2.3856441974639893,-9.308079719543457,2.4837498664855957
1729260577655424500,3.149424560546875,2.392822742462158,-9.647860527038574,1.8664016723632812
1729260577665007400,3.15900732421875,2.5052852630615234,-10.078569412231445,1.3304094076156616
1729260577674590200,3.168590087890625,2.610569477081299,-10.53799057006836,0.8542376756668091
1729260577684173000,3.178173095703125,2.737389087677002,-10.978270530700684,0.519242525100708
1729260577693756000,3.187755859375,2.8139593601226807,-11.282158851623535,0.17706887423992157
1729260577703338800,3.1973388671875,2.912065267562866,-11.559725761413574,0.03349951654672623
1729260577712921600,3.206921630859375,2.746960401535034,-11.648261070251465,-0.3086741268634796
1729260577722504400,3.21650439453125,3.129812002182007,-12.023933410644531,-0.3278166949748993
1729260577732087300,3.22608740234375,3.3954153060913086,-12.468998908996582,-0.5383850932121277
1729260577741670000,3.235669921875,3.242274761199951,-12.906885147094727,-0.9810572862625122
1729260577751252700,3.245252685546875,2.7349963188171387,-13.074382781982422,-1.2610175609588623
1729260577760835600,3.254835693359375,1.8065811395645142,-13.194024085998535,-0.7393822073936462
1729260577770418400,3.26441845703125,0.7106683254241943,-13.316058158874512,0.2967100143432617
1729260577780001300,3.274001220703125,-0.5264210104942322,-13.344772338867188,1.3878371715545654
1729260577789584100,3.283584228515625,-1.6654045581817627,-13.232309341430664,1.9692929983139038
1729260577799167000,3.2931669921875,-2.730210542678833,-13.170095443725586,2.007578134536743
1729260577808749800,3.302749755859375,-3.510270833969116,-13.292129516601562,1.8807586431503296
1729260577818332700,3.312332763671875,-3.6777684688568115,-13.71805191040039,1.6079767942428589
1729260577827915500,3.32191552734375,-3.345165967941284,-14.45025634765625,1.0480563640594482
1729260577837498400,3.331498291015625,-2.6297121047973633,-14.950355529785156,0.4953143000602722
1729260577847081200,3.341081298828125,-2.462214469909668,-15.366706848144531,-0.26081767678260803
1729260577856664000,3.3506640625,-2.801995277404785,-15.199209213256836,-1.0001999139785767
1729260577866246700,3.36024658203125,-3.1657042503356934,-14.232508659362793,-1.794616937637329
1729260577875829500,3.36982958984375,-3.720839262008667,-12.672389030456543,-2.4646072387695312
1729260577885412400,3.379412353515625,-3.900300979614258,-11.368300437927246,-2.6057839393615723
1729260577894995200,3.3889951171875,-3.9792640209198,-10.62413215637207,-2.5387847423553467
1729260577904578000,3.398578125,-3.2303106784820557,-10.466206550598145,-1.9142581224441528
1729260577914161000,3.408160888671875,-1.9860427379608154,-11.248659133911133,-0.7441678643226624
1729260577923743700,3.41774365234375,-0.2799602448940277,-12.734601974487305,0.9547362327575684
1729260577933326600,3.42732666015625,1.679761528968811,-13.875978469848633,2.5292134284973145
1729260577942909400,3.436909423828125,3.1896326541900635,-13.986048698425293,3.7878382205963135
1729260577952492300,3.4464921875,4.4650068283081055,-13.789836883544922,4.67078971862793
1729260577962075100,3.4560751953125,5.3694939613342285,-13.95972728729248,5.381458282470703
1729260577971658000,3.465657958984375,6.075376510620117,-14.270793914794922,6.302694797515869
1729260577981240800,3.47524072265625,6.166304111480713,-14.203795433044434,6.953542709350586
1729260577990823400,3.484823486328125,5.9198431968688965,-13.892727851867676,7.343572616577148
1729260578000406300,3.49440625,4.945964336395264,-13.234702110290527,6.927221775054932
1729260578009989000,3.503989013671875,3.6442689895629883,-12.490533828735352,6.482156753540039
1729260578019572000,3.513572021484375,2.526820659637451,-11.971291542053223,6.57547664642334
1729260578029154800,3.52315478515625,1.9286150932312012,-11.447263717651367,6.872186660766602
1729260578038737700,3.532737548828125,1.674975872039795,-10.767702102661133,6.908079147338867
1729260578048320500,3.542320556640625,1.7252250909805298,-10.107282638549805,6.898507595062256
1729260578057903400,3.5519033203125,1.8305093050003052,-9.190832138061523,6.8004021644592285
1729260578067486200,3.561486328125,1.3399807214736938,-8.34138011932373,6.410371780395508
1729260578077069000,3.571069091796875,0.47617170214653015,-7.542177200317383,5.637490272521973
1729260578086652000,3.58065185546875,-0.15553347766399384,-6.735795974731445,4.474578380584717
1729260578096234800,3.59023486328125,0.02153540402650833,-5.989234924316406,3.311666488647461
1729260578105817600,3.599817626953125,1.4476577043533325,-5.7858452796936035,2.2325034141540527
1729260578115400400,3.609400390625,2.3090739250183105,-5.694917678833008,0.8327022790908813
1729260578124983300,3.6189833984375,2.1032910346984863,-5.948556900024414,-0.16749759018421173
1729260578134566000,3.62856591796875,2.0554347038269043,-6.106483459472656,-1.404586911201477
1729260578144148700,3.638148681640625,2.076970100402832,-6.010770320892334,-1.7443677186965942
1729260578153731600,3.647731689453125,1.7802600860595703,-5.960521221160889,-1.430907964706421
1729260578163314400,3.657314453125,1.6031911373138428,-5.6207404136657715,0.038285162299871445
1729260578172897300,3.666897216796875,1.550549030303955,-4.967499732971191,1.9956140518188477
1729260578182480100,3.676480224609375,1.4452649354934692,-4.376472473144531,2.746960401535034
1729260578192063000,3.68606298828125,1.648654818534851,-3.94097900390625,3.0245277881622314
1729260578201645800,3.695645751953125,2.0482561588287354,-3.565305709838867,3.3403804302215576
1729260578211228700,3.705228759765625,2.414358139038086,-3.060420274734497,4.192225456237793
1729260578220811500,3.7148115234375,2.768495798110962,-2.5052852630615234,5.469992637634277
1729260578230394400,3.724394287109375,2.806781053543091,-2.0817556381225586,6.807580471038818
1729260578239977200,3.733977294921875,2.3856441974639893,-1.7635103464126587,7.944170951843262
1729260578249560000,3.74356005859375,2.4670002460479736,-1.581655740737915,8.075776100158691
1729260578259142700,3.753142578125,2.344966173171997,-1.4811571836471558,7.247859954833984
1729260578268725500,3.7627255859375,1.5984054803848267,-1.8616160154342651,5.840879917144775
1729260578278308400,3.772308349609375,0.062213387340307236,-3.1130621433258057,4.721039295196533
1729260578287891200,3.78189111328125,-1.7635103464126587,-5.319244861602783,4.543970108032227
1729260578297474000,3.79147412109375,-4.1970109939575195,-7.920242786407471,4.553541660308838
1729260578307057000,3.801056884765625,-9.56650447845459,-11.485548973083496,4.575077056884766
1729260578316639700,3.8106396484375,-18.163917541503906,-18.82672882080078,1.9286150932312012
1729260578326222600,3.82022265625,-16.917255401611328,-27.098716735839844,-3.82373046875
1729260578335805400,3.829805419921875,-14.711073875427246,-30.003602981567383,-4.457828521728516
1729260578345388300,3.83938818359375,-14.390435218811035,-28.453054428100586,-5.271388053894043
1729260578354971100,3.84897119140625,-13.85922908782959,-24.62453842163086,-8.475378036499023
1729260578364554000,3.858553955078125,-12.480962753295898,-19.379470825195312,-7.690532207489014
1729260578374136800,3.86813671875,-9.166903495788574,-12.971491813659668,-1.5074782371520996
1729260578383719400,3.877719482421875,-3.957728624343872,-7.542177200317383,0.36610186100006104
1729260578393302500,3.887302490234375,1.129412293434143,-4.098905086517334,0.6891329288482666
1729260578402885000,3.896885009765625,5.292923450469971,-1.7587246894836426,0.8398807644844055
1729260578412468000,3.906468017578125,8.008777618408203,-0.08135596662759781,0.6508477330207825
1729260578422050800,3.91605078125,10.65523910522461,0.3613162338733673,2.337787628173828
1729260578431633700,3.925633544921875,9.29611587524414,-1.6390835046768188,5.113461971282959
1729260578441216500,3.935216552734375,8.757730484008789,-5.271388053894043,6.6592254638671875
1729260578450799400,3.94479931640625,6.948757171630859,-10.899307250976562,7.917850017547607
1729260578460382200,3.95438232421875,5.690132141113281,-16.467405319213867,10.686346054077148
1729260578469965000,3.963965087890625,6.613761901855469,-22.236501693725586,14.529218673706055
1729260578479548000,3.9735478515625,7.726424217224121,-27.38346290588379,16.907684326171875
1729260578489130800,3.983130859375,4.730610370635986,-25.507490158081055,13.404592514038086
1729260578498713600,3.992713623046875,1.0456634759902954,-17.699708938598633,7.118647575378418
1729260578508296400,4.00229638671875,-1.4644074440002441,-11.521441459655762,3.7543387413024902
1729260578517879300,4.01187939453125,-3.081955671310425,-7.0923261642456055,1.9310078620910645
1729260578527462000,4.0214619140625,-3.0795626640319824,-4.316651821136475,0.9260223507881165
1729260578537044700,4.031044677734375,-1.8783657550811768,-2.8426733016967773,0.16749759018421173
1729260578546627600,4.040627685546875,0.04307080805301666,-1.8472590446472168,-0.6628118753433228
1729260578556210400,4.05021044921875,1.0360921621322632,-1.4333007335662842,0.21774685382843018
1729260578565793300,4.059793212890625,0.885344386100769,-1.9262222051620483,2.1272194385528564
1729260578575376100,4.069376220703125,1.6342978477478027,-2.715853691101074,3.1561331748962402
1729260578584959000,4.078958984375,2.56510591506958,-4.1347975730896,3.421736478805542
1729260578594541800,4.088541748046875,3.460021495819092,-6.38165807723999,3.7088751792907715
1729260578604124700,4.098124755859375,3.7950167655944824,-8.93958568572998,3.7423746585845947
1729260578613707500,4.10770751953125,2.9527430534362793,-11.227124214172363,4.084548473358154
1729260578623290400,4.117290283203125,2.5292134284973145,-13.000205039978027,4.709074974060059
1729260578632873200,4.126873291015625,3.3308091163635254,-14.017154693603516,5.288137912750244
1729260578642456000,4.1364560546875,3.4241292476654053,-13.9453706741333,4.66361141204834
1729260578652039000,4.146038818359375,3.084348440170288,-12.636496543884277,2.7014968395233154
1729260578661621500,4.15562158203125,3.0317063331604004,-11.20798110961914,0.9355936646461487
1729260578671204600,4.16520458984375,3.050848960876465,-10.308279991149902,-0.17946170270442963
1729260578680787200,4.174787109375,2.8283164501190186,-9.760323524475098,-0.9188438653945923
1729260578690370000,4.1843701171875,2.400001049041748,-9.528220176696777,-1.2203395366668701
1729260578699953000,4.193952880859375,2.0817556381225586,-9.262616157531738,-1.31365966796875
1729260578709535700,4.20353564453125,1.7324036359786987,-8.874979019165039,-1.3112667798995972
1729260578719118600,4.21311865234375,1.3495519161224365,-8.60459041595459,-1.2275179624557495
1729260578728701400,4.222701416015625,0.9810572862625122,-8.417949676513672,-0.8973084688186646
1729260578738284300,4.2322841796875,0.33020952343940735,-8.358129501342773,-1.765903115272522
1729260578747867100,4.2418671875,-0.22492532432079315,-8.707481384277344,-1.6079767942428589
1729260578757450000,4.251449951171875,-0.7513462901115417,-9.324830055236816,-0.397208571434021
1729260578767032800,4.26103271484375,-1.2323036193847656,-9.987641334533691,0.6675975322723389
1729260578776615700,4.27061572265625,-1.794616937637329,-10.470992088317871,1.2251251935958862
1729260578786198500,4.280198486328125,-2.589034080505371,-10.60977554321289,1.495514154434204
1729260578795781400,4.289781494140625,-3.3690943717956543,-10.234102249145508,1.5792629718780518
1729260578805364200,4.2993642578125,-3.548556089401245,-9.657432556152344,1.5553346872329712
1729260578814946800,4.30894677734375,-2.9072794914245605,-9.248259544372559,1.7635103464126587
1729260578824529700,4.31852978515625,-1.6319050788879395,-9.004191398620605,2.266003131866455
1729260578834112500,4.328112548828125,-0.20817556977272034,-8.987442016601562,3.16331148147583
1729260578843695400,4.3376953125,1.3854442834854126,-9.09272575378418,3.871587038040161
1729260578853278200,4.3472783203125,2.2396819591522217,-9.332008361816406,4.388436794281006
1729260578862861000,4.356861083984375,1.8687944412231445,-9.791430473327637,4.240081787109375
1729260578872444000,4.36644384765625,1.6941183805465698,-10.691131591796875,4.388436794281006
1729260578882026800,4.37602685546875,1.2634103298187256,-11.732009887695312,4.505684852600098
1729260578891609600,4.385609619140625,0.27756741642951965,-12.930813789367676,4.185046672821045
1729260578901192400,4.3951923828125,-0.6436693072319031,-14.153546333312988,2.8522446155548096
1729260578910775300,4.404775390625,-1.179661512374878,-14.620146751403809,0.8327022790908813
1729260578920358100,4.414358154296875,-1.612762451171875,-14.754144668579102,-1.2323036193847656
1729260578929941000,4.42394091796875,-2.0650060176849365,-15.026926040649414,-3.046063184738159
1729260578939523800,4.43352392578125,-2.754138946533203,-15.41217041015625,-4.4650068283081055
1729260578949106700,4.443106689453125,-3.211168050765991,-15.943377494812012,-5.1182475090026855
1729260578958689300,4.452689208984375,-3.431307554244995,-16.342979431152344,-5.221138954162598
1729260578968272100,4.462272216796875,-3.208775281906128,-16.14437484741211,-5.2283172607421875
1729260578977855000,4.47185498046875,-3.0173492431640625,-15.687345504760742,-5.087141036987305
1729260578987437800,4.481437744140625,-2.139183521270752,-15.30449390411377,-4.984249591827393
1729260578997020700,4.491020751953125,-0.9954141974449158,-13.785051345825195,-4.5200419425964355
1729260579006603500,4.500603515625,0.34217363595962524,-11.784651756286621,-3.6538400650024414
1729260579016186400,4.510186279296875,1.8137595653533936,-10.470992088317871,-3.0484559535980225
1729260579025769200,4.519769287109375,2.778067111968994,-10.753344535827637,-1.9022940397262573
1729260579035352000,4.52935205078125,3.5820555686950684,-12.363714218139648,0.5551348328590393
1729260579044935000,4.538934814453125,4.211368083953857,-13.830514907836914,3.8907296657562256
1729260579054517800,4.548517822265625,4.46979284286499,-15.381064414978027,6.711867332458496
1729260579064100600,4.5581005859375,4.744967460632324,-16.47697639465332,8.889336585998535
1729260579073683500,4.567683349609375,4.390829563140869,-17.285751342773438,11.22233772277832
1729260579083266300,4.577266357421875,3.565305709838867,-17.9102783203125,13.98365592956543
1729260579092849000,4.586848876953125,2.6727828979492188,-17.52742576599121,14.71346664428711
1729260579102432000,4.596431884765625,1.8664016723632812,-16.046268463134766,13.14377498626709
1729260579112014600,4.6060146484375,1.7491533756256104,-14.909677505493164,11.571690559387207
1729260579121597400,4.615597412109375,1.454836130142212,-13.141382217407227,9.614361763000488
1729260579131180300,4.62518017578125,1.057627558708191,-11.353943824768066,8.248059272766113
1729260579140763100,4.63476318359375,1.0456634759902954,-9.702896118164062,6.939185619354248
1729260579150346000,4.644345947265625,1.1653046607971191,-8.023134231567383,5.903093338012695
1729260579159928800,4.6539287109375,1.153340458869934,-6.51326322555542,5.656632900238037
1729260579169511700,4.66351171875,1.3280165195465088,-5.5728840827941895,5.675775527954102
1729260579179094500,4.673094482421875,1.4261223077774048,-4.833501815795898,5.123033046722412
1729260579188677400,4.682677490234375,1.0839486122131348,-4.29033088684082,4.376472473144531
1729260579198260200,4.69226025390625,1.160519003868103,-3.988835334777832,4.036691665649414
1729260579207843000,4.701843017578125,1.1174482107162476,-3.651447296142578,3.2781670093536377
1729260579217426000,4.711426025390625,1.155733346939087,-3.6155550479888916,2.3880369663238525
1729260579227008800,4.7210087890625,1.2035897970199585,-3.9457645416259766,1.404586911201477
1729260579236591600,4.730591552734375,2.0721843242645264,-4.271188259124756,0.5144568681716919
1729260579246174200,4.74017431640625,2.282752752304077,-4.314259052276611,-1.100698471069336
1729260579255757000,4.749757080078125,1.5146567821502686,-5.525027275085449,-1.6534404754638672
1729260579265340000,4.75933984375,1.4333007335662842,-5.44845724105835,-2.6081767082214355
1729260579274922800,4.7689228515625,0.4666004180908203,-5.307280540466309,-2.053041934967041
1729260579284505600,4.778505615234375,1.1054840087890625,-5.024927616119385,-0.15074782073497772
1729260579294088400,4.78808837890625,1.6007983684539795,-4.6540398597717285,2.3641088008880615
1729260579303671300,4.79767138671875,1.6462619304656982,-4.122833251953125,4.0558342933654785
1729260579313254100,4.807254150390625,1.9980069398880005,-3.6873397827148438,4.479363918304443
1729260579322837000,4.8168369140625,2.366501569747925,-3.3714871406555176,4.314259052276611
1729260579332419800,4.826419921875,2.6321048736572266,-3.046063184738159,4.553541660308838
1729260579342002700,4.836002685546875,2.531606435775757,-3.0101709365844727,5.625525951385498
1729260579351585500,4.84558544921875,2.3306093215942383,-3.294916868209839,6.580262184143066
1729260579361168400,4.85516845703125,2.2995026111602783,-4.213760852813721,7.204789161682129
1729260579370751200,4.864751220703125,1.9310078620910645,-5.209175109863281,6.733402729034424
1729260579380334000,4.874333984375,0.3397808074951172,-6.259624004364014,5.32403039932251
1729260579389916700,4.883916748046875,-0.9260223507881165,-7.81974458694458,3.9290146827697754
1729260579399499500,4.89349951171875,-2.4502503871917725,-10.030712127685547,2.9001009464263916
1729260579409082400,4.903082275390625,-4.95074987411499,-13.048062324523926,1.9405791759490967
1729260579418665200,4.912665283203125,-8.717052459716797,-17.036897659301758,-0.2392822653055191
1729260579428248000,4.922248046875,-12.495320320129395,-21.47079849243164,-2.218146562576294
1729260579437831000,4.931830810546875,-16.81436538696289,-24.71068000793457,-2.699103832244873
1729260579447413800,4.941413818359375,-19.53021812438965,-23.753549575805664,-4.792823791503906
1729260579456996600,4.95099658203125,-18.91765594482422,-20.073389053344727,-8.075776100158691
1729260579466579500,4.960579345703125,-15.220745086669922,-16.354942321777344,-8.425128936767578
1729260579476162300,4.970162353515625,-9.111868858337402,-13.203595161437988,-1.8089739084243774
1729260579485745200,4.9797451171875,-3.304488182067871,-10.631311416625977,0.8781659007072449
1729260579495328000,4.989327880859375,0.46420758962631226,-8.188239097595215,0.38763725757598877
1729260579504910800,4.998910888671875,2.4670002460479736,-5.757131099700928,0.3086741268634796
1729260579514493700,5.00849365234375,4.00319242477417,-3.9361932277679443,1.074377417564392
1729260579524076500,5.01807666015625,6.9104719161987305,-3.297309637069702,2.3497519493103027
1729260579533659400,5.027659423828125,9.315258979797363,-4.393222332000732,4.632504463195801
1729260579543242000,5.037241943359375,7.81974458694458,-6.656832695007324,6.8865437507629395
1729260579552824800,5.046824951171875,5.934200286865234,-9.494720458984375,8.018348693847656
1729260579562407700,5.05640771484375,4.579862594604492,-13.232309341430664,8.93240737915039
1729260579571990500,5.065990478515625,4.9986066818237305,-17.331214904785156,11.279766082763672
1729260579581573400,5.075573486328125,5.946164131164551,-21.38465690612793,14.385649681091309
1729260579591156200,5.08515625,5.422136306762695,-24.03829574584961,16.17548179626465
1729260579600739000,5.094739013671875,2.194218397140503,-21.06401824951172,13.935798645019531
1729260579610322000,5.104322021484375,-0.06699903309345245,-14.833107948303223,8.602197647094727
1729260579619904800,5.11390478515625,-1.1653046607971191,-9.980463027954102,4.878965377807617
1729260579629487600,5.123487548828125,-1.5337992906570435,-6.314659118652344,2.699103832244873
1729260579639070500,5.133070556640625,-1.0600204467773438,-3.696911096572876,1.4500504732131958
1729260579648653300,5.1426533203125,0.3852444589138031,-2.3306093215942383,0.6484549641609192
1729260579658236200,5.152236083984375,1.0815558433532715,-1.9334007501602173,0.8733802437782288
1729260579667819000,5.161819091796875,2.117648124694824,-2.00518536567688,1.7180466651916504
1729260579677401900,5.17140185546875,3.7734813690185547,-2.562713146209717,2.919243574142456
1729260579686984700,5.180984619140625,4.685146808624268,-3.4480574131011963,3.7806596755981445
1729260579696567300,5.1905673828125,3.7902309894561768,-5.3694939613342285,3.1345977783203125
1729260579706150100,5.200150146484375,2.9551360607147217,-7.860422611236572,2.8139593601226807
1729260579715733000,5.20973291015625,2.7828526496887207,-10.712666511535645,2.9312076568603516
1729260579725315800,5.21931591796875,3.1657042503356934,-13.426127433776855,3.105883836746216
1729260579734898700,5.228898681640625,3.672982692718506,-15.426527976989746,4.170690059661865
1729260579744481500,5.2384814453125,3.8883368968963623,-15.093925476074219,4.575077056884766
1729260579754064400,5.248064453125,5.271388053894043,-12.949955940246582,3.5820555686950684
1729260579763647200,5.257647216796875,7.022934436798096,-10.380064964294434,2.1822543144226074
1729260579773230000,5.26722998046875,6.8243303298950195,-8.334200859069824,1.0193424224853516
1729260579782813000,5.27681298828125,5.123033046722412,-7.941778182983398,0.4163511395454407
1729260579792395800,5.286395751953125,3.098705291748047,-8.030312538146973,-0.7417750358581543
1729260579801978600,5.295978515625,1.4452649354934692,-8.415556907653809,-1.1820544004440308
1729260579811561500,5.3055615234375,0.34217363595962524,-8.657232284545898,-1.0671988725662231
1729260579821144300,5.315144287109375,-0.22013968229293823,-8.688339233398438,-0.8422735929489136
1729260579830727200,5.32472705078125,-0.2991028428077698,-8.992227554321289,-0.607776939868927
1729260579840310000,5.33431005859375,0.5862415432929993,-9.757930755615234,-0.6891329288482666
1729260579849892600,5.343892578125,0.8231309652328491,-11.064412117004395,-1.7994025945663452
1729260579859475500,5.353475341796875,-0.4546363055706024,-11.167303085327148,-3.4959139823913574
1729260579869058300,5.363058349609375,-1.8448662757873535,-10.791629791259766,-3.4002010822296143
1729260579878641200,5.37264111328125,-3.4025938510894775,-10.552348136901855,-2.342573404312134
1729260579888224000,5.38222412109375,-4.773681163787842,-10.494919776916504,-1.4333007335662842
1729260579897806800,5.391806884765625,-5.79063081741333,-10.466206550598145,-0.7920243144035339
1729260579907389700,5.4013896484375,-6.068198204040527,-10.255638122558594,-0.45224347710609436
1729260579916972500,5.41097265625,-4.73300313949585,-9.772287368774414,-0.19621145725250244
1729260579926555400,5.420555419921875,-2.6081767082214355,-9.34157943725586,-0.23210379481315613
1729260579936138200,5.43013818359375,-0.6436693072319031,-9.116654396057129,0.064606212079525
1729260579945721000,5.43972119140625,0.48574298620224,-8.949156761169434,0.8303094506263733
1729260579955304000,5.449303955078125,1.430907964706421,-8.894122123718262,1.8903298377990723
1729260579964886800,5.45888671875,2.926422119140625,-9.116654396057129,2.854637384414673
1729260579974469600,5.4684697265625,4.974678039550781,-9.695717811584473,3.651447296142578
1729260579984052500,5.478052490234375,5.3216376304626465,-10.396814346313477,4.101297855377197
1729260579993635300,5.48763525390625,4.984249591827393,-10.959127426147461,4.108476638793945
1729260580003218000,5.497218017578125,3.7950167655944824,-11.782258987426758,4.00319242477417
1729260580012800800,5.50680078125,2.431107759475708,-13.009777069091797,4.168296813964844
1729260580022383600,5.516383544921875,1.4189438819885254,-13.938192367553711,3.988835334777832
1729260580031966500,5.525966552734375,0.9762716293334961,-14.294722557067871,2.4885356426239014
1729260580041549300,5.53554931640625,0.4785645306110382,-14.34018611907959,0.31106695532798767
1729260580051132200,5.545132080078125,-0.12203395366668701,-14.3330078125,-1.6510475873947144
1729260580060715000,5.554715087890625,-1.6271194219589233,-14.586647033691406,-3.4002010822296143
1729260580070297900,5.5642978515625,-3.7399818897247314,-14.610574722290039,-4.460221290588379
1729260580079880700,5.573880615234375,-5.6685967445373535,-14.400006294250488,-4.29033088684082
1729260580089463600,5.583463623046875,-6.783652305603027,-14.400006294250488,-3.7710886001586914
1729260580099046400,5.59304638671875,-6.960721015930176,-14.526825904846191,-3.5365917682647705
1729260580108629200,5.602629150390625,-5.759523868560791,-13.976476669311523,-3.0245277881622314
1729260580118212000,5.612212158203125,-3.8428730964660645,-12.945170402526855,-2.4741785526275635
1729260580127795000,5.621794921875,-1.8352949619293213,-11.772686958312988,-2.172683000564575
1729260580137377800,5.631377685546875,-0.5647061467170715,-11.179266929626465,-1.4428720474243164
1729260580146960600,5.640960693359375,0.7585247755050659,-11.428120613098145,-0.4259224236011505
1729260580156543200,5.650543212890625,2.5076780319213867,-12.971491813659668,1.5194423198699951
1729260580166126000,5.6601259765625,3.869194269180298,-14.163117408752441,3.2279176712036133
1729260580175709000,5.669708984375,4.46979284286499,-14.823535919189453,4.948357105255127
1729260580185291800,5.679291748046875,5.436492919921875,-15.476777076721191,6.716653347015381
1729260580194874600,5.68887451171875,5.788238048553467,-15.86441421508789,8.13798999786377
1729260580204457500,5.69845751953125,5.197210788726807,-16.02712631225586,9.176474571228027
1729260580214040300,5.708040283203125,3.9672999382019043,-15.936199188232422,10.370492935180664
1729260580223623200,5.717623046875,2.53399920463562,-15.519847869873047,10.559526443481445
1729260580233206000,5.7272060546875,2.3234307765960693,-15.294921875,10.246066093444824
1729260580242788900,5.736788818359375,2.201396942138672,-14.93121337890625,9.523433685302734
1729260580252371700,5.746371826171875,0.641276478767395,-13.545768737792969,7.805387496948242
1729260580261954600,5.75595458984375,-0.4905286431312561,-11.519047737121582,6.247660160064697
1729260580271537400,5.765537353515625,-0.6436693072319031,-9.736394882202148,4.945964336395264
1729260580281120300,5.775120361328125,0.16271193325519562,-8.15234661102295,4.627718925476074
1729260580290703000,5.784703125,1.459621787071228,-6.869793891906738,5.034498691558838
1729260580300286000,5.794285888671875,2.4526431560516357,-5.857629776000977,5.481956481933594
1729260580309868500,5.80386865234375,2.720639228820801,-5.065605640411377,5.501099109649658
1729260580319451600,5.81345166015625,2.2301106452941895,-4.125226020812988,4.780859470367432
1729260580329034200,5.8230341796875,1.430907964706421,-3.672982692718506,3.806980848312378
1729260580338617000,5.8326171875,1.3806586265563965,-3.7328033447265625,2.9479575157165527
1729260580348200000,5.842199951171875,1.6821542978286743,-3.7902309894561768,3.1034910678863525
1729260580357782800,5.85178271484375,1.2993026971817017,-4.804787635803223,2.242074728012085
1729260580367365600,5.86136572265625,0.9044869542121887,-4.986642360687256,0.5407779216766357
1729260580376948500,5.870948486328125,0.18903298676013947,-5.19242525100708,-0.39481574296951294
1729260580386531300,5.88053125,0.45224347710609436,-5.615954875946045,-0.5623133182525635
1729260580396114200,5.8901142578125,0.9236295223236084,-5.5345988273620605,-0.6317051649093628
1729260580405697000,5.899697021484375,1.0959128141403198,-5.099104881286621,-0.45942193269729614
1729260580415279900,5.90927978515625,0.9667003750801086,-4.716253280639648,0.5168496966362
1729260580424862700,5.91886279296875,1.8855443000793457,-4.235296249389648,2.122433662414551
1729260580434445600,5.928445556640625,2.4741785526275635,-3.704089403152466,3.335594654083252
1729260580444028400,5.9380283203125,2.912065267562866,-3.3236305713653564,3.5054850578308105
1729260580453611300,5.947611328125,3.507878065109253,-2.950350284576416,3.531806230545044
1729260580463193900,5.95719384765625,3.751945972442627,-2.7828526496887207,4.208974838256836
1729260580472776700,5.966776611328125,3.8572301864624023,-2.555534601211548,5.424529075622559
1729260580482359600,5.976359619140625,4.412364959716797,-2.6297121047973633,6.865008354187012
1729260580491942400,5.9859423828125,4.498506546020508,-3.335594654083252,7.544569969177246
1729260580501525200,5.995525146484375,3.060420274734497,-4.409972190856934,7.322037220001221
1729260580511108000,6.005108154296875,-0.9451649188995361,-6.345765590667725,6.716653347015381
1729260580520691000,6.01469091796875,-3.565305709838867,-8.803194046020508,5.9509501457214355
1729260580530273800,6.024273681640625,-8.786444664001465,-12.212966918945312,4.754538536071777
1729260580539856600,6.033856689453125,-17.687744140625,-19.063617706298828,1.3280165195465088
1729260580549439500,6.043439453125,-18.896120071411133,-26.060232162475586,-3.6634113788604736
1729260580559022300,6.053022216796875,-16.414762496948242,-28.012775421142578,-7.300501823425293
1729260580568605200,6.062605224609375,-14.763715744018555,-24.818355560302734,-9.734002113342285
1729260580578188000,6.07218798828125,-14.380864143371582,-20.53759765625,-11.322836875915527
1729260580587771000,6.08177099609375,-12.88774299621582,-16.685152053833008,-7.223931789398193
1729260580597353700,6.091353759765625,-9.518648147583008,-12.844672203063965,-0.6173482537269592
1729260580606936600,6.1009365234375,-5.175675392150879,-9.329615592956543,0.8255237936973572
1729260580616519200,6.110519287109375,-1.2849457263946533,-6.606583118438721,0.22971096634864807
1729260580626102000,6.12010205078125,2.572284460067749,-4.41475772857666,0.09810572862625122
1729260580635684900,6.129684814453125,5.867201328277588,-3.5820555686950684,1.7084753513336182
1729260580645267700,6.139267822265625,9.183652877807617,-4.2281174659729,3.7950167655944824
1729260580654850600,6.1488505859375,9.279366493225098,-6.3840508460998535,5.86002254486084
1729260580664433400,6.158433349609375,7.001399040222168,-10.073782920837402,8.528019905090332
1729260580674016300,6.168016357421875,6.58265495300293,-15.074782371520996,11.066804885864258
1729260580683599000,6.17759912109375,6.144768714904785,-20.293529510498047,14.124832153320312
1729260580693182000,6.187181884765625,7.314858913421631,-23.954547882080078,15.90987777709961
1729260580702764800,6.196764892578125,6.527620315551758,-22.487747192382812,14.19422435760498
1729260580712347600,6.20634765625,4.957928657531738,-16.424335479736328,9.154939651489258
1729260580721930500,6.215930419921875,3.476771354675293,-11.887542724609375,6.996613502502441
1729260580731513300,6.225513427734375,1.7850457429885864,-8.547162055969238,5.278566837310791
1729260580741096200,6.23509619140625,0.8877372145652771,-5.843272686004639,3.6921253204345703
1729260580750679000,6.244678955078125,0.9260223507881165,-4.106083869934082,2.3880369663238525
1729260580760261600,6.25426171875,1.184447169303894,-2.7732813358306885,1.4093725681304932
1729260580769844500,6.263844482421875,1.1940184831619263,-1.8089739084243774,1.1198409795761108
1729260580779427300,6.27342724609375,1.3615161180496216,-1.5242279767990112,1.6223337650299072
1729260580789010200,6.28301025390625,2.328216314315796,-1.9022940397262573,2.234896421432495
1729260580798593000,6.292593017578125,3.122633457183838,-4.0319061279296875,2.550748825073242
1729260580808175900,6.30217578125,1.7563318014144897,-6.3840508460998535,1.5242279767990112
1729260580817758700,6.3117587890625,1.797009825706482,-9.248259544372559,0.9571290612220764
1729260580827341600,6.321341552734375,3.081955671310425,-12.007184028625488,1.6079767942428589
1729260580836924400,6.33092431640625,3.7423746585845947,-13.909478187561035,1.919043779373169
1729260580846507300,6.34050732421875,3.4552359580993652,-14.256437301635742,2.03629207611084
1729260580856090000,6.350090087890625,5.7619171142578125,-12.662817001342773,2.0267207622528076
1729260580865673000,6.3596728515625,5.663811206817627,-9.707681655883789,1.679761528968811
1729260580875255800,6.369255859375,4.364508628845215,-8.104490280151367,1.2346965074539185
1729260580884838700,6.378838623046875,2.2468605041503906,-7.9657063484191895,0.5982056856155396
1729260580894421200,6.388421142578125,0.5838487148284912,-8.37966537475586,-0.08853443711996078
1729260580904004400,6.39800439453125,-0.4953143000602722,-8.738588333129883,-0.4570291340351105
1729260580913587000,6.4075869140625,-1.0360921621322632,-8.997013092041016,-0.1459621787071228
1729260580923169800,6.417169677734375,-0.9619147181510925,-9.31047248840332,0.5862415432929993
1729260580932752600,6.426752685546875,-0.3924229145050049,-9.571290969848633,1.3615161180496216
1729260580942335500,6.43633544921875,0.08614161610603333,-9.382257461547852,1.3160524368286133
1729260580951918300,6.44591845703125,-0.062213387340307236,-8.791230201721191,0.6556333899497986
1729260580961501200,6.455501220703125,-0.6293123364448547,-8.50169849395752,0.6867401003837585
1729260580971084000,6.465083984375,-1.3304094076156616,-8.879764556884766,0.4211367964744568
1729260580980667000,6.4746669921875,-1.9621145725250244,-9.425328254699707,-0.2273181527853012
1729260580990249700,6.484249755859375,-2.5531418323516846,-10.080962181091309,-0.7992027401924133
1729260580999832600,6.49383251953125,-3.0173492431640625,-10.676774978637695,-1.277767300605774
1729260581009415400,6.50341552734375,-3.1800613403320312,-10.956734657287598,-1.9286150932312012
1729260581018998300,6.512998291015625,-2.6081767082214355,-10.944770812988281,-2.3401806354522705
1729260581028581000,6.5225810546875,-1.1102696657180786,-10.782058715820312,-1.94297194480896
1729260581038164000,6.5321640625,0.27038896083831787,-10.540383338928223,-1.3423734903335571
1729260581047746600,6.54174658203125,1.191625714302063,-9.944570541381836,-1.031306505203247
1729260581057329400,6.551329345703125,2.0027925968170166,-9.29611587524414,-0.30628129839897156
1729260581066912300,6.560912353515625,2.8354947566986084,-9.006584167480469,0.8207381963729858
1729260581076495000,6.5704951171875,3.263810157775879,-9.516255378723145,2.280359983444214
1729260581086078000,6.580077880859375,2.8594231605529785,-10.581061363220215,3.3020951747894287
1729260581095660800,6.589660888671875,2.1918256282806396,-11.734402656555176,3.840480327606201
1729260581105243600,6.59924365234375,1.3184453248977661,-12.863814353942871,4.163511276245117
1729260581114826500,6.608826416015625,0.33499518036842346,-13.85922908782959,4.204189300537109
1729260581124409300,6.618409423828125,-0.34695929288864136,-14.498112678527832,3.6849467754364014
1729260581133992200,6.6279921875,-0.9595218896865845,-14.60339641571045,2.414358139038086
1729260581143575000,6.637574951171875,-1.5936198234558105,-14.34018611907959,0.8638089895248413
1729260581153158000,6.647157958984375,-2.297109842300415,-14.141581535339355,-1.0121639966964722
1729260581162740700,6.65674072265625,-3.3858439922332764,-14.117653846740723,-2.7254250049591064
1729260581172323600,6.666323486328125,-4.821537494659424,-14.175081253051758,-3.6777684688568115
1729260581181906400,6.675906494140625,-5.938985824584961,-14.263615608215332,-4.1491546630859375
1729260581191489000,6.685489013671875,-6.111268997192383,-14.352149963378906,-4.084548473358154
1729260581201071900,6.69507177734375,-5.458028316497803,-14.378471374511719,-3.8428730964660645
1729260581210654700,6.70465478515625,-4.455435752868652,-13.75633716583252,-3.359523057937622
1729260581220237600,6.714237548828125,-2.7182464599609375,-12.681960105895996,-2.524427890777588
1729260581229820400,6.7238203125,-0.20817556977272034,-11.880364418029785,-1.6534404754638672
1729260581239403300,6.7334033203125,2.012363910675049,-12.224930763244629,-0.5742774605751038
1729260581248986000,6.742986083984375,3.436093330383301,-13.564911842346191,0.4785645306110382
1729260581258569000,6.75256884765625,4.728217601776123,-14.708681106567383,1.7994025945663452
1729260581268151800,6.76215185546875,5.927021503448486,-15.783058166503906,3.627519130706787
1729260581277734700,6.771734619140625,5.994020938873291,-16.311872482299805,5.340780258178711
1729260581287317500,6.7813173828125,6.585047721862793,-17.041683197021484,7.867600917816162
1729260581296900400,6.790900390625,6.214160442352295,-17.374284744262695,10.02592658996582
1729260581306483200,6.800483154296875,4.261617183685303,-17.233108520507812,11.684152603149414
1729260581316066000,6.810066162109375,2.4119651317596436,-16.601404190063477,11.794222831726074
1729260581325648600,6.819648681640625,1.6031911373138428,-16.09891128540039,11.308480262756348
1729260581335231500,6.8292314453125,0.4378865361213684,-14.964713096618652,9.77707290649414
1729260581344814300,6.838814453125,-1.0145567655563354,-12.971491813659668,7.802994728088379
1729260581354397200,6.848397216796875,-1.8472590446472168,-10.8969144821167,5.8959150314331055
1729260581363980000,6.85797998046875,-1.0001999139785767,-9.032905578613281,5.003392219543457
1729260581373563000,6.86756298828125,0.35413774847984314,-7.338787078857422,5.036891460418701
1729260581383145700,6.877145751953125,1.5792629718780518,-6.128018856048584,5.443671703338623
1729260581392728600,6.886728515625,2.720639228820801,-5.163711071014404,5.568098068237305
1729260581402311400,6.8963115234375,3.105883836746216,-4.295116424560547,5.168497085571289
1729260581411894300,6.905894287109375,2.8833513259887695,-3.5222349166870117,4.488935470581055
1729260581421477000,6.91547705078125,2.251646041870117,-3.211168050765991,3.5916268825531006
1729260581431060000,6.92506005859375,2.043470621109009,-3.146561861038208,2.6632115840911865
1729260581440642800,6.934642822265625,2.0578274726867676,-3.1920254230499268,1.5026925802230835
1729260581450225400,6.944225341796875,2.076970100402832,-4.634897232055664,2.1750757694244385
1729260581459808300,6.953808349609375,1.710868239402771,-5.163711071014404,0.6891329288482666
1729260581469391000,6.96339111328125,0.3732803463935852,-5.20678186416626,-0.2512463629245758
1729260581478974000,6.972973876953125,-0.13160525262355804,-5.335994720458984,-0.9355936646461487
1729260581488556800,6.982556884765625,1.153340458869934,-5.230710506439209,-0.19381862878799438
1729260581498139600,6.9921396484375,1.5625132322311401,-4.807180881500244,0.4211367964744568
1729260581507722500,7.001722412109375,1.3758729696273804,-4.091726779937744,1.4476577043533325
1729260581517305300,7.011305419921875,1.9453648328781128,-3.7088751792907715,2.8689942359924316
1729260581526888200,7.02088818359375,2.8977081775665283,-3.2781670093536377,3.7471601963043213
1729260581536471000,7.030470947265625,3.4911282062530518,-2.926422119140625,3.627519130706787
1729260581546054000,7.040053955078125,3.4480574131011963,-2.6009981632232666,3.510270833969116
1729260581555636700,7.04963671875,3.3547372817993164,-2.3090739250183105,4.292723655700684
1729260581565219600,7.059219482421875,3.562912940979004,-2.562713146209717,5.443671703338623
1729260581574802200,7.06880224609375,3.9672999382019043,-3.1345977783203125,5.962913990020752
1729260581584385000,7.078385009765625,3.4743785858154297,-3.893122434616089,5.793023586273193
1729260581593967900,7.0879677734375,3.25663161277771,-4.6301116943359375,5.2115678787231445
1729260581603550700,7.09755078125,-1.3567304611206055,-6.099305152893066,4.060619831085205
1729260581613133600,7.107133544921875,-3.8117663860321045,-8.724231719970703,4.120440483093262
1729260581622716400,7.11671630859375,-6.738188743591309,-12.117254257202148,3.792623996734619
1729260581632299300,7.12629931640625,-12.095718383789062,-17.943777084350586,1.2442678213119507
1729260581641882000,7.135882080078125,-15.818950653076172,-24.53600311279297,-1.8161523342132568
1729260581651465000,7.14546484375,-18.28834342956543,-27.617958068847656,-3.6634113788604736
1729260581661047800,7.1550478515625,-18.017953872680664,-25.040889739990234,-5.773880958557129
1729260581670630700,7.164630615234375,-16.29033660888672,-20.042282104492188,-7.779066562652588
1729260581680213500,7.174213623046875,-13.304094314575195,-15.182459831237793,-7.29093074798584
1729260581689796400,7.18379638671875,-9.578469276428223,-11.827722549438477,-2.63449764251709
1729260581699379200,7.193379150390625,-5.72841739654541,-9.281759262084961,-0.34217363595962524
1729260581708961800,7.2029619140625,-2.8761727809906006,-7.200003147125244,-0.10767702013254166
1729260581718544600,7.212544677734375,0.05503492057323456,-5.4795637130737305,0.06699903309345245
1729260581728127500,7.22212744140625,3.5437703132629395,-4.814359188079834,1.2035897970199585
1729260581737710300,7.23171044921875,6.965506553649902,-6.0466628074646,4.460221290588379
1729260581747293200,7.241293212890625,8.193024635314941,-8.154739379882812,6.20219612121582
1729260581756876000,7.2508759765625,6.879364967346191,-10.717453002929688,7.470392227172852
1729260581766459000,7.260458984375,5.036891460418701,-14.132010459899902,8.872586250305176
1729260581776041700,7.270041748046875,5.1876397132873535,-18.163917541503906,10.827522277832031
1729260581785624600,7.27962451171875,7.188039302825928,-22.925634384155273,14.285151481628418
1729260581795207400,7.28920751953125,7.434499740600586,-23.818157196044922,15.562918663024902
1729260581804790300,7.298790283203125,6.080162525177002,-18.12802505493164,10.868200302124023
1729260581814373000,7.308373046875,3.2685956954956055,-12.698709487915039,7.920242786407471
1729260581823956000,7.3179560546875,1.0863415002822876,-9.008976936340332,5.737988471984863
1729260581833538600,7.32753857421875,-0.22971096634864807,-6.118447303771973,3.9194436073303223
1729260581843121400,7.337121337890625,-0.41874396800994873,-3.759124279022217,2.4574289321899414
1729260581852704300,7.346704345703125,0.6675975322723389,-1.9070796966552734,1.3663017749786377
1729260581862287000,7.356287109375,1.3878371715545654,-0.9188438653945923,0.6867401003837585
1729260581871870000,7.365869873046875,2.1774685382843018,-0.37806597352027893,0.5431707501411438
1729260581881452800,7.375452880859375,2.768495798110962,-0.4426721930503845,0.8973084688186646
1729260581891035600,7.38503564453125,3.266202926635742,-1.9262222051620483,2.2061824798583984
1729260581900618500,7.394618408203125,1.3040883541107178,-4.570291042327881,2.7038896083831787
1729260581910201300,7.404201416015625,0.8327022790908813,-7.5326056480407715,2.352144718170166
1729260581919784200,7.4137841796875,1.1341979503631592,-10.951949119567871,2.4646072387695312
1729260581929367000,7.423366943359375,2.1439690589904785,-14.380864143371582,3.404986619949341
1729260581938949600,7.43294970703125,2.1128623485565186,-17.467605590820312,4.120440483093262
1729260581948532700,7.44253271484375,2.2923240661621094,-18.037097930908203,3.3020951747894287
1729260581958115300,7.452115234375,5.706881999969482,-15.77827262878418,2.289931297302246
1729260581967698200,7.4616982421875,6.604190349578857,-12.076576232910156,0.11485548317432404
1729260581977281000,7.471281005859375,5.869594097137451,-9.332008361816406,-1.2610175609588623
1729260581986863900,7.48086376953125,3.538984775543213,-8.537590980529785,-1.6319050788879395
1729260581996446700,7.49044677734375,1.832902193069458,-8.214560508728027,-1.588834285736084
1729260582006029600,7.500029541015625,0.97148597240448,-8.202595710754395,-1.3495519161224365
1729260582015612400,7.5096123046875,0.38763725757598877,-8.212167739868164,-1.1174482107162476
1729260582025195300,7.5191953125,-0.0023928226437419653,-7.779066562652588,-0.8997012972831726
1729260582034778000,7.528778076171875,-0.11006984114646912,-7.594819068908691,-0.6508477330207825
1729260582044361000,7.53836083984375,0.31345975399017334,-7.7216386795043945,-0.5264210104942322
1729260582053943600,7.547943603515625,1.1030912399291992,-8.02074146270752,-0.9906286001205444
1729260582063526400,7.5575263671875,0.8350951075553894,-8.475378036499023,-0.607776939868927
1729260582073109200,7.567109130859375,0.17706887423992157,-9.09272575378418,0.46899324655532837
1729260582082692000,7.576692138671875,-0.6508477330207825,-9.853643417358398,1.5314065217971802
1729260582092275000,7.58627490234375,-1.7156537771224976,-10.810772895812988,2.3497519493103027
1729260582101857800,7.59585791015625,-2.8522446155548096,-11.578868865966797,2.871387243270874
1729260582111440600,7.605440673828125,-4.106083869934082,-11.655439376831055,2.950350284576416
1729260582121023500,7.6150234375,-4.790431022644043,-11.236695289611816,2.6321048736572266
1729260582130606300,7.6246064453125,-4.4243292808532715,-10.341779708862305,1.794616937637329
1729260582140189200,7.634189208984375,-2.974278450012207,-9.595218658447266,1.4715858697891235
1729260582149772000,7.64377197265625,-1.5098711252212524,-9.22433090209961,1.3543375730514526
1729260582159354600,7.653354736328125,-0.32542386651039124,-9.138189315795898,1.3423734903335571
1729260582168937500,7.6629375,0.5144568681716919,-9.343972206115723,1.4141582250595093
1729260582178520300,7.672520263671875,0.7345965504646301,-9.903892517089844,1.674975872039795
1729260582188103200,7.682103271484375,0.5431707501411438,-10.999805450439453,2.2683959007263184
1729260582197686000,7.69168603515625,0.4043870270252228,-12.361321449279785,2.531606435775757
1729260582207268900,7.701268798828125,0.6125625967979431,-13.655838966369629,2.122433662414551
1729260582216851700,7.710851806640625,0.9978070259094238,-14.512469291687012,0.9068797826766968
1729260582226434600,7.7204345703125,1.337587833404541,-14.928820610046387,-0.7226324677467346
1729260582236017400,7.730017333984375,1.306481122970581,-14.876178741455078,-2.469393014907837
1729260582245600300,7.739600341796875,0.6699903607368469,-14.495719909667969,-3.792623996734619
1729260582255183000,7.74918310546875,-0.39481574296951294,-14.287544250488281,-4.4721856117248535
1729260582264766000,7.758765869140625,-1.526620864868164,-14.165510177612305,-4.591826438903809
1729260582274348500,7.7683486328125,-2.7661030292510986,-14.498112678527832,-4.433900356292725
1729260582283931600,7.777931640625,-3.799802303314209,-15.043676376342773,-4.175475597381592
1729260582293514200,7.78751416015625,-4.8191447257995605,-15.601203918457031,-4.058227062225342
1729260582303097000,7.79709716796875,-5.26181697845459,-15.440884590148926,-3.651447296142578
1729260582312680000,7.806679931640625,-4.319045066833496,-14.055439949035645,-2.8498518466949463
1729260582322262800,7.8162626953125,-2.3712873458862305,-12.799208641052246,-2.282752752304077
1729260582331845600,7.825845703125,-0.1818545162677765,-12.825529098510742,-1.6366907358169556
1729260582341428500,7.835428466796875,2.0961127281188965,-13.703695297241211,0.7561319470405579
1729260582351011300,7.84501123046875,3.500699520111084,-14.428720474243164,2.785245656967163
1729260582360594200,7.85459423828125,4.800002098083496,-15.354743003845215,5.374279499053955
1729260582370177000,7.864177001953125,6.192625045776367,-16.007984161376953,7.386643409729004
1729260582379759900,7.873759765625,7.3052873611450195,-16.472190856933594,9.547362327575684
1729260582389342500,7.883342529296875,7.549355506896973,-16.613367080688477,11.609975814819336
1729260582398925300,7.89292529296875,6.063412666320801,-16.40519142150879,13.296915054321289
1729260582408508200,7.902508056640625,4.019941806793213,-15.773487091064453,12.68435287475586
1729260582418091000,7.912091064453125,2.1750757694244385,-14.665610313415527,11.284551620483398
1729260582427673900,7.921673828125,0.8590233325958252,-13.564911842346191,9.822537422180176
1729260582437256700,7.931256591796875,-0.17946170270442963,-12.53599739074707,8.647661209106445
1729260582446839600,7.940839599609375,-0.9403793215751648,-11.162517547607422,7.657032489776611
1729260582456422400,7.95042236328125,-0.8015955686569214,-9.468399047851562,6.491727828979492
1729260582466005200,7.960005126953125,-0.2153540402650833,-7.9250288009643555,5.3455657958984375
1729260582475588000,7.969588134765625,0.6747759580612183,-6.872186660766602,4.9052863121032715
1729260582485170700,7.979170654296875,1.8855443000793457,-6.130411624908447,4.948357105255127
1729260582494753500,7.98875341796875,2.7254250049591064,-5.307280540466309,5.290530681610107
1729260582504336400,7.99833642578125,2.1511476039886475,-4.766502857208252,5.134997367858887
1729260582513919200,8.007919189453125,1.2083754539489746,-4.431507587432861,4.163511276245117
1729260582523502000,8.017502197265625,1.4165509939193726,-4.340580463409424,3.5341989994049072
1729260582533085000,8.0270849609375,1.3543375730514526,-4.383651256561279,2.675175666809082
1729260582542667800,8.036667724609375,1.648654818534851,-4.687539577484131,1.8137595653533936
1729260582552250600,8.046250732421875,2.201396942138672,-4.907679080963135,0.7752745151519775
1729260582561833500,8.05583349609375,2.6321048736572266,-5.111069202423096,-0.27756741642951965
1729260582571416300,8.065416259765625,2.1655044555664062,-5.288137912750244,-1.4835500717163086
1729260582580999200,8.074999267578125,1.0887342691421509,-5.2283172607421875,-2.5459632873535156
1729260582590581800,8.084581787109375,0.8159525394439697,-4.60139799118042,-1.820937991142273
1729260582600164600,8.09416455078125,1.0911271572113037,-3.735196113586426,-0.5814558863639832
1729260582609747500,8.10374755859375,0.6867401003837585,-2.967100143432617,1.246660590171814
1729260582619330300,8.113330322265625,0.6317051649093628,-2.4670002460479736,2.6249263286590576
1729260582628913200,8.1229130859375,1.3830515146255493,-2.3090739250183105,3.620340585708618
1729260582638496000,8.13249609375,2.289931297302246,-2.249253273010254,4.027120590209961
1729260582648078800,8.142078857421875,2.9048867225646973,-2.179861545562744,4.335794448852539
1729260582657661700,8.15166162109375,3.689732551574707,-2.1032910346984863,5.048855781555176
1729260582667244500,8.16124462890625,4.244867324829102,-2.4741785526275635,6.405586242675781
1729260582676827400,8.170827392578126,3.988835334777832,-3.0077781677246094,7.2813591957092285
1729260582686410200,8.18041015625,2.7900311946868896,-3.8979079723358154,7.267002582550049
1729260582695992800,8.189992919921876,1.2490534782409668,-5.429314613342285,6.826723098754883
1729260582705575700,8.19957568359375,-1.129412293434143,-7.886743545532227,6.199803352355957
1729260582715158500,8.209158447265626,-4.625326156616211,-11.44965648651123,5.036891460418701
1729260582724741400,8.218741455078124,-11.34676456451416,-17.525033950805664,2.1846470832824707
1729260582734324200,8.22832421875,-15.007783889770508,-24.378076553344727,-2.493321180343628
1729260582743907000,8.237906982421874,-14.206188201904297,-28.144380569458008,-5.527420520782471
1729260582753490000,8.247489990234374,-14.691930770874023,-27.663421630859375,-8.410771369934082
1729260582763072800,8.25707275390625,-16.488941192626953,-24.265613555908203,-10.631311416625977
1729260582772655400,8.2666552734375,-16.11326789855957,-20.094924926757812,-10.679167747497559
1729260582782238500,8.276238525390625,-13.411770820617676,-15.06281852722168,-5.350351333618164
1729260582791821000,8.285821044921875,-8.726624488830566,-9.865608215332031,-1.576870083808899
1729260582801404000,8.29540380859375,-3.2542388439178467,-6.10169792175293,-0.3206382393836975
1729260582810986800,8.30498681640625,1.3112667798995972,-3.950550079345703,0.8470591902732849
1729260582820569600,8.314569580078125,5.19960355758667,-2.981456995010376,1.6869399547576904
1729260582830152400,8.32415234375,8.025527000427246,-4.254438877105713,3.9194436073303223
1729260582839735300,8.3337353515625,8.382058143615723,-7.690532207489014,7.846065521240234
1729260582849318100,8.343318115234375,7.57806921005249,-12.488141059875488,10.564311981201172
1729260582858901000,8.35290087890625,8.298309326171875,-18.46302032470703,11.997612953186035
1729260582868483600,8.362483642578125,8.595019340515137,-23.67698097229004,15.548561096191406
1729260582878066400,8.37206640625,9.159725189208984,-24.978675842285156,17.871992111206055
1729260582887649300,8.381649169921875,8.350951194763184,-18.86979866027832,13.16530990600586
1729260582897232100,8.391232177734375,5.888736724853516,-12.28953742980957,8.484949111938477
1729260582906815000,8.40081494140625,3.445664644241333,-8.676374435424805,5.9916276931762695
1729260582916397800,8.410397705078125,1.4476577043533325,-6.118447303771973,3.895515203475952
1729260582925980700,8.419980712890625,-0.09092725813388824,-4.3549370765686035,2.4598217010498047
1729260582935563500,8.4295634765625,-0.8614161610603333,-3.1417760848999023,1.6223337650299072
1729260582945146400,8.439146484375,-0.763310432434082,-2.4287149906158447,1.3782658576965332
1729260582954729200,8.448729248046876,-0.16031911969184875,-1.8472590446472168,1.6965112686157227
1729260582964312000,8.45831201171875,0.5312066078186035,-1.4883357286453247,2.1918256282806396
1729260582973894700,8.467894775390626,0.4713860750198364,-2.146361827850342,2.258824586868286
1729260582983477500,8.4774775390625,0.49292147159576416,-4.137190341949463,2.2755744457244873
1729260582993060400,8.487060302734376,0.4163511395454407,-6.64486837387085,2.6249263286590576
1729260583002643200,8.496643310546874,0.6125625967979431,-9.336793899536133,3.22552490234375
1729260583012226000,8.50622607421875,1.2394821643829346,-12.17228889465332,4.252045631408691
1729260583021809000,8.515808837890624,2.0865414142608643,-14.617753982543945,4.869394302368164
1729260583031391700,8.525391845703124,3.280559778213501,-15.603596687316895,4.297509670257568
1729260583040974600,8.534974609375,5.747560024261475,-14.797215461730957,3.19441819190979
1729260583050557200,8.54455712890625,5.032105922698975,-12.126825332641602,2.1822543144226074
1729260583060140000,8.55414013671875,3.730410575866699,-9.937392234802246,0.607776939868927
1729260583069723000,8.563722900390625,1.97407865524292,-9.013762474060059,0.11724831163883209
1729260583079305700,8.5733056640625,0.7776673436164856,-8.714659690856934,-0.08374879509210587
1729260583088888600,8.582888671875,0.9236295223236084,-8.93958568572998,-0.6963114142417908
1729260583098471400,8.592471435546875,1.8687944412231445,-9.162117958068848,-1.0767701864242554
1729260583108054300,8.60205419921875,2.840280532836914,-9.542576789855957,-0.7178468108177185
1729260583117637000,8.61163720703125,2.273181438446045,-9.439684867858887,-0.06939185410737991
1729260583127220000,8.621219970703125,1.6319050788879395,-8.963513374328613,0.34217363595962524
1729260583136802800,8.630802734375,1.4763715267181396,-8.305487632751465,0.48813581466674805
1729260583146385400,8.640385498046875,1.3758729696273804,-7.829315662384033,-0.34217363595962524
1729260583155968300,8.64996826171875,1.3256237506866455,-7.731209754943848,-0.5910272002220154
1729260583165551000,8.659551025390625,0.9834501147270203,-8.135597229003906,-0.1698904037475586
1729260583175134000,8.669134033203125,0.4139583110809326,-8.85344409942627,0.641276478767395
1729260583184716800,8.678716796875,-0.20099709928035736,-9.504291534423828,1.153340458869934
1729260583194299600,8.688299560546875,-0.8350951075553894,-10.066604614257812,1.3830515146255493
1729260583203882500,8.697882568359375,-1.4644074440002441,-10.650453567504883,1.7228323221206665
1729260583213465300,8.70746533203125,-1.770688772201538,-10.963912963867188,1.6247265338897705
1729260583223048200,8.717048095703126,-1.6941183805465698,-10.995019912719727,1.2418749332427979
1729260583232630800,8.726630859375,-1.1892328262329102,-10.815558433532715,1.4093725681304932
1729260583242213600,8.736213623046876,-0.8805587291717529,-10.53081226348877,2.1607189178466797
1729260583251796500,8.74579638671875,-1.1940184831619263,-10.346565246582031,3.098705291748047
1729260583261379300,8.75537939453125,-1.8089739084243774,-10.327422142028809,3.6681971549987793
1729260583270962200,8.764962158203126,-2.4598217010498047,-10.265209197998047,3.7423746585845947
1729260583280545000,8.774544921875,-3.1728827953338623,-10.731809616088867,3.321237802505493
1729260583290128000,8.7841279296875,-3.5030922889709473,-11.81336498260498,2.390429735183716
1729260583299710700,8.793710693359374,-3.211168050765991,-12.945170402526855,0.97148597240448
1729260583309293600,8.80329345703125,-2.1296122074127197,-13.82812213897705,-0.5216353535652161
1729260583318876200,8.812876220703124,-0.3397808074951172,-14.268401145935059,-1.8424733877182007
1729260583328459000,8.822458984375,1.1222338676452637,-14.648859977722168,-3.0580272674560547
1729260583338041900,8.832041748046874,1.832902193069458,-14.904891967773438,-3.8428730964660645
1729260583347624700,8.841624755859375,1.825723648071289,-15.235101699829102,-3.90987229347229
1729260583357207600,8.85120751953125,1.1748759746551514,-15.30449390411377,-3.7663028240203857
1729260583366790400,8.860790283203125,0.2560320198535919,-15.046069145202637,-3.94097900390625
1729260583376373200,8.870373291015625,-1.368694543838501,-14.794822692871094,-4.48414945602417
1729260583385956000,8.8799560546875,-2.8187451362609863,-14.414363861083984,-4.718646049499512
1729260583395538700,8.88953857421875,-3.6442689895629883,-13.773087501525879,-4.359723091125488
1729260583405121500,8.89912158203125,-3.871587038040161,-12.63171100616455,-3.6634113788604736
1729260583414704400,8.908704345703125,-3.029313564300537,-11.944971084594727,-2.864208698272705
1729260583424287200,8.918287353515625,-2.1439690589904785,-12.830314636230469,-1.2634103298187256
1729260583433870000,8.9278701171875,-1.1940184831619263,-14.342578887939453,1.430907964706421
1729260583443453000,8.937452880859375,0.6915257573127747,-15.125031471252441,4.498506546020508
1729260583453035800,8.947035888671875,2.548356056213379,-15.828521728515625,6.819544315338135
1729260583462618600,8.95661865234375,4.2831525802612305,-16.252052307128906,8.537590980529785
1729260583472201200,8.966201171875,6.147161483764648,-16.69711685180664,10.430314064025879
1729260583481784000,8.9757841796875,6.515655994415283,-16.68276023864746,12.090932846069336
1729260583491367000,8.985366943359375,5.407779216766357,-16.051054000854492,13.191631317138672
1729260583500949800,8.99494970703125,4.409972190856934,-14.988640785217285,12.375679016113281
1729260583510532600,9.00453271484375,2.6967110633850098,-13.931013107299805,10.387243270874023
1729260583520115500,9.014115478515626,1.2945170402526855,-13.28255844116211,9.68375301361084
1729260583529698300,9.0236982421875,0.5910272002220154,-12.468998908996582,9.34875774383545
1729260583539281200,9.03328125,0.27038896083831787,-11.071590423583984,8.039883613586426
1729260583548863700,9.04286376953125,0.13878370821475983,-9.379864692687988,6.419943332672119
1729260583558446600,9.052446533203126,0.02871387079358101,-7.805387496948242,5.087141036987305
1729260583568029400,9.062029541015624,0.4977070987224579,-6.728617191314697,4.967499732971191
1729260583577612300,9.0716123046875,1.1581261157989502,-6.025127410888672,5.072783946990967
1729260583587195100,9.081195068359374,1.6845471858978271,-5.522634506225586,5.0943193435668945
1729260583596778000,9.090778076171874,1.4620146751403809,-5.302495002746582,4.66361141204834
1729260583606360800,9.10036083984375,1.100698471069336,-5.278566837310791,4.247260093688965
1729260583615943700,9.109943603515624,0.8207381963729858,-5.2115678787231445,3.6681971549987793
1729260583625526500,9.119526611328125,0.7848458290100098,-5.190032482147217,3.5054850578308105
1729260583635109000,9.129109130859375,0.8135597109794617,-5.249852657318115,3.1680972576141357
1729260583644692000,9.13869189453125,0.8709874153137207,-4.809573650360107,1.710868239402771
1729260583654274800,9.14827490234375,1.4715858697891235,-4.527220249176025,1.6821542978286743
1729260583663857700,9.157857666015625,1.31365966796875,-4.981856822967529,-0.014356935396790504
1729260583673440500,9.1674404296875,1.2083754539489746,-4.587040901184082,-2.0721843242645264
1729260583683023400,9.1770234375,1.0504491329193115,-4.125226020812988,-2.5770699977874756
1729260583692606200,9.186606201171875,1.1748759746551514,-3.9744784832000732,-1.3160524368286133
1729260583702188800,9.196188720703125,1.4452649354934692,-3.3164522647857666,0.7345965504646301
1729260583711771600,9.205771728515625,2.541177749633789,-2.6703901290893555,2.651247501373291
1729260583721354500,9.2153544921875,3.108276605606079,-2.4119651317596436,3.0388846397399902
1729260583730937300,9.224937255859375,3.390629768371582,-2.0171494483947754,3.5437703132629395
1729260583740520200,9.234520263671875,3.115455150604248,-1.6917256116867065,4.230510234832764
1729260583750103000,9.24410302734375,2.840280532836914,-1.5002998113632202,4.898108005523682
1729260583759686000,9.253685791015625,2.2683959007263184,-2.352144718170166,6.527620315551758
1729260583769268500,9.2632685546875,2.7661030292510986,-3.397808074951172,7.618747234344482
1729260583778851300,9.272851318359375,3.1274192333221436,-4.577469825744629,7.487142086029053
1729260583788434200,9.28243408203125,0.7896314859390259,-6.0849480628967285,6.716653347015381
1729260583798017000,9.29201708984375,-2.5603201389312744,-8.60459041595459,5.2737812995910645
1729260583807599900,9.301599853515626,-5.9437713623046875,-12.605389595031738,3.9122650623321533
1729260583817182700,9.3111826171875,-11.753544807434082,-19.125831604003906,1.0767701864242554
1729260583826765600,9.320765625,-14.677574157714844,-25.739593505859375,-4.12761926651001
1729260583836348400,9.330348388671876,-13.579268455505371,-28.292734146118164,-7.0683979988098145
1729260583845931300,9.33993115234375,-14.048261642456055,-26.151159286499023,-9.056833267211914
1729260583855513900,9.349513916015624,-16.25922966003418,-22.059431076049805,-9.779465675354004
1729260583865096700,9.3590966796875,-17.202001571655273,-17.788244247436523,-8.599804878234863
1729260583874679600,9.368679443359374,-14.380864143371582,-12.892528533935547,-3.266202926635742
1729260583884262400,9.378262451171874,-9.219545364379883,-9.075976371765137,-0.04785645380616188
1729260583893845200,9.38784521484375,-4.467400074005127,-6.742974281311035,1.5649060010910034
1729260583903428000,9.397427978515625,0.15314064919948578,-4.780859470367432,1.7515461444854736
1729260583913011000,9.407010986328125,4.835894584655762,-3.345165967941284,2.2133610248565674
1729260583922593500,9.416593505859375,8.755337715148926,-4.409972190856934,5.051248550415039
1729260583932176400,9.42617626953125,9.365508079528809,-6.9104719161987305,7.95134973526001
1729260583941759200,9.43575927734375,7.23589563369751,-10.109675407409668,10.468599319458008
1729260583951342000,9.445342041015625,6.874579429626465,-14.833107948303223,10.992627143859863
1729260583960925000,9.454925048828125,6.929614543914795,-19.46800422668457,12.75613784790039
1729260583970507800,9.4645078125,7.389036178588867,-22.46381950378418,15.30449390411377
1729260583980090600,9.474090576171875,7.156932353973389,-21.657438278198242,15.450455665588379
1729260583989673200,9.483673095703125,5.979663848876953,-16.3046932220459,10.990234375
1729260583999256000,9.493256103515625,3.9912281036376953,-11.85165023803711,7.1473612785339355
1729260584008839000,9.5028388671875,1.7276179790496826,-8.293522834777832,4.122833251953125
1729260584018421800,9.512421875,0.07417750358581543,-5.663811206817627,2.0673987865448
1729260584028004600,9.522004638671875,-0.5144568681716919,-3.9314076900482178,0.7178468108177185
1729260584037587500,9.53158740234375,-0.30149564146995544,-2.8977081775665283,0.349352091550827
1729260584047170300,9.54117041015625,0.2871387302875519,-2.0985054969787598,0.5982056856155396
1729260584056753200,9.550753173828125,1.5984054803848267,-1.8687944412231445,1.1748759746551514
1729260584066335700,9.560335693359375,2.376072883605957,-2.746960401535034,3.2685956954956055
1729260584075918600,9.569918701171876,0.8422735929489136,-4.223331928253174,3.483949661254883
1729260584085501400,9.57950146484375,0.882951557636261,-6.123233318328857,2.1583259105682373
1729260584095084300,9.589084228515626,1.5026925802230835,-8.504091262817383,1.6007983684539795
1729260584104667100,9.598667236328126,2.0338993072509766,-10.837093353271484,1.6917256116867065
1729260584114250000,9.60825,2.6464617252349854,-13.26102352142334,2.335394859313965
1729260584123832800,9.617832763671874,3.1800613403320312,-14.797215461730957,2.830709218978882
1729260584133415400,9.62741552734375,5.161318302154541,-14.701501846313477,2.888136863708496
1729260584142998300,9.636998291015624,5.101497650146484,-12.827921867370605,2.4502503871917725
1729260584152581000,9.6465810546875,4.450650215148926,-10.313065528869629,1.0863415002822876
1729260584162164000,9.6561640625,3.13220477104187,-9.032905578613281,0.02392822690308094
1729260584171746800,9.665746826171874,1.6199408769607544,-8.71226692199707,-0.3326023519039154
1729260584181329700,9.67532958984375,0.7752745151519775,-8.874979019165039,-0.5168496966362
1729260584190912500,9.68491259765625,0.9379864931106567,-8.772088050842285,-0.7513462901115417
1729260584200495000,9.6944951171875,1.0049854516983032,-9.06401252746582,-0.7417750358581543
1729260584210078000,9.704077880859375,0.794417142868042,-9.020941734313965,-0.2919243574142456
1729260584219660800,9.713660888671875,0.5694918036460876,-8.72183895111084,0.19621145725250244
1729260584229243600,9.72324365234375,0.7728816866874695,-8.420342445373535,0.38285163044929504
1729260584238826500,9.732826416015625,1.191625714302063,-8.401200294494629,-0.10289137065410614
1729260584248409300,9.742409423828125,1.7156537771224976,-8.882157325744629,-0.07178468257188797
1729260584257992000,9.751991943359375,1.4452649354934692,-9.870393753051758,0.6101697683334351
1729260584267574800,9.76157470703125,0.39960137009620667,-10.631311416625977,1.490728497505188
1729260584277157600,9.77115771484375,-0.760917603969574,-10.954341888427734,2.084148406982422
1729260584286740500,9.780740478515625,-1.9405791759490967,-10.985448837280273,2.2851455211639404
1729260584296323300,9.7903232421875,-3.046063184738159,-10.746166229248047,2.0554347038269043
1729260584305906200,9.79990625,-3.6466617584228516,-10.372885704040527,1.4644074440002441
1729260584315489000,9.809489013671875,-3.359523057937622,-10.03549861907959,0.8685946464538574
1729260584325071600,9.819071533203125,-2.5076780319213867,-9.69093132019043,1.179661512374878
1729260584334654500,9.828654541015625,-1.6558332443237305,-9.355937004089355,1.947757601737976
1729260584344237300,9.8382373046875,-1.0671988725662231,-9.212367057800293,2.6177480220794678
1729260584353820200,9.847820068359376,-0.8733802437782288,-9.262616157531738,3.1178479194641113
1729260584363403000,9.857403076171876,-0.97148597240448,-9.497113227844238,3.2925238609313965
1729260584372985900,9.86698583984375,-1.0959128141403198,-10.198209762573242,3.1752755641937256
1729260584382568700,9.876568603515626,-0.9308080077171326,-10.925628662109375,2.775674343109131
1729260584392151300,9.8861513671875,-0.38763725757598877,-11.858829498291016,2.3736801147460938
1729260584401734100,9.895734130859376,0.7680960893630981,-12.859028816223145,1.4883357286453247
1729260584411317000,9.90531689453125,2.014756679534912,-13.447663307189941,-0.19142581522464752
1729260584420899800,9.91489990234375,2.8043880462646484,-13.775480270385742,-1.9094724655151367
1729260584430482700,9.924482666015624,2.833101987838745,-14.275579452514648,-2.8666014671325684
1729260584440065500,9.9340654296875,1.9094724655151367,-14.873785972595215,-3.5916268825531006
1729260584449648000,9.943648193359374,0.7202396392822266,-15.577275276184082,-4.086941242218018
1729260584459231000,9.95323095703125,-0.33020952343940735,-15.900306701660156,-4.493721008300781
1729260584468813800,9.962813720703124,-1.301695466041565,-15.445670127868652,-4.718646049499512
1729260584478396700,9.972396728515625,-2.3186452388763428,-15.139389038085938,-4.766502857208252
1729260584487979500,9.9819794921875,-3.7184464931488037,-14.921642303466797,-5.003392219543457
1729260584497562400,9.991562255859375,-5.4173502922058105,-14.093725204467773,-5.0225348472595215
1729260584507145200,10.001145263671875,-6.489335060119629,-12.655638694763184,-4.486542224884033
1729260584516727800,10.010727783203125,-6.379265308380127,-11.624332427978516,-3.4719855785369873
1729260584526310700,10.020310546875,-5.312066078186035,-12.098111152648926,-1.9597218036651611
1729260584535893500,10.0298935546875,-3.5605201721191406,-14.007583618164062,0.7154539823532104
1729260584545476400,10.039476318359375,-0.9379864931106567,-14.912070274353027,3.4025938510894775
1729260584555059200,10.04905908203125,1.7994025945663452,-15.373885154724121,5.536991596221924
1729260584564642000,10.05864208984375,4.297509670257568,-15.742380142211914,6.900900363922119
1729260584574224600,10.068224609375,7.5326056480407715,-16.567903518676758,9.020941734313965
1729260584583807500,10.077807373046875,9.839286804199219,-16.92922019958496,9.89432144165039
1729260584593390300,10.087390380859375,10.090533256530762,-16.364513397216797,10.729416847229004
1729260584602973200,10.09697314453125,8.267202377319336,-15.594025611877441,10.403992652893066
1729260584612556000,10.10655615234375,5.740381717681885,-14.758930206298828,9.506684303283691
1729260584622139000,10.116138916015625,3.34995174407959,-13.758729934692383,8.93958568572998
1729260584631721700,10.1257216796875,1.643869161605835,-13.00259780883789,8.951549530029297
1729260584641304300,10.13530419921875,1.007378339767456,-11.82293701171875,8.616554260253906
1729260584650887200,10.14488720703125,0.3326023519039154,-10.26760196685791,7.609176158905029
1729260584660470000,10.154469970703126,-0.14356936514377594,-8.504091262817383,6.144768714904785
1729260584670052900,10.164052978515626,-0.05503492057323456,-7.073183536529541,5.290530681610107
1729260584679635700,10.1736357421875,0.7345965504646301,-6.116054534912109,5.405386447906494
1729260584689218600,10.183218505859376,1.3232308626174927,-5.2354960441589355,5.704489231109619
1729260584698801200,10.19280126953125,0.2512463629245758,-4.462614059448242,5.036891460418701
1729260584708384000,10.202384033203124,-0.45942193269729614,-4.187439441680908,5.003392219543457
1729260584717966800,10.211966796875,-0.5958128571510315,-4.216153621673584,4.941178798675537
1729260584727549700,10.2215498046875,-0.6867401003837585,-4.249652862548828,4.211368083953857
1729260584737132500,10.231132568359374,-0.4785645306110382,-4.2592244148254395,3.1202406883239746
1729260584746715400,10.24071533203125,-0.3517449200153351,-4.242474555969238,2.0817556381225586
1729260584756298000,10.250298095703124,-0.19381862878799438,-4.517649173736572,1.1198409795761108
1729260584765880800,10.259880859375,0.2919243574142456,-4.551148891448975,0.24167509377002716
1729260584775463700,10.269463623046875,1.3926228284835815,-4.388436794281006,-0.7010970115661621
1729260584785046500,10.279046630859375,2.194218397140503,-4.180261135101318,-1.2275179624557495
1729260584794629400,10.28862939453125,2.825923442840576,-3.893122434616089,-1.0408778190612793
1729260584804212000,10.2982119140625,2.9527430534362793,-3.438486099243164,0.3206382393836975
1729260584813794800,10.307794921875,3.6777684688568115,-2.794816732406616,1.8831514120101929
1729260584823377700,10.317377685546875,4.438685894012451,-2.5363919734954834,2.6249263286590576
1729260584832960500,10.32696044921875,3.9529430866241455,-2.8833513259887695,3.3332018852233887
1729260584842543400,10.33654345703125,3.273381471633911,-3.2757742404937744,4.235296249389648
1729260584852126200,10.346126220703125,2.562713146209717,-4.118047714233398,5.874379634857178
1729260584861709000,10.355708984375,1.2969099283218384,-5.06082010269165,7.269395351409912
1729260584871291600,10.365291748046875,1.828116536140442,-5.67338228225708,7.192824840545654
1729260584880874500,10.37487451171875,2.2707886695861816,-6.340980052947998,6.436692714691162
1729260584890457300,10.384457275390625,1.1437692642211914,-7.5637125968933105,6.417550563812256
1729260584900040200,10.394040283203125,-1.0648061037063599,-9.379864692687988,5.491528034210205
1729260584909623000,10.403623046875,-3.404986619949341,-11.736795425415039,3.8500516414642334
1729260584919206000,10.413205810546875,-8.240880966186523,-15.546168327331543,1.8807586431503296
1729260584928788500,10.42278857421875,-16.23051643371582,-22.54756736755371,-3.108276605606079
1729260584938371300,10.432371337890626,-16.146766662597656,-26.94318389892578,-6.900900363922119
1729260584947954200,10.4419541015625,-15.06281852722168,-25.93580436706543,-9.547362327575684
1729260584957537000,10.451537109375,-15.991233825683594,-22.801206588745117,-11.468798637390137
1729260584967120000,10.461119873046876,-16.59661865234375,-19.25025749206543,-11.665010452270508
1729260584976702700,10.47070263671875,-13.694124221801758,-15.170495986938477,-5.687739372253418
1729260584986285300,10.480285400390626,-8.35573673248291,-11.054841041564941,-1.007378339767456
1729260584995868200,10.4898681640625,-4.512863636016846,-7.874779224395752,0.5527420043945312
1729260585005451000,10.499450927734374,-1.2442678213119507,-5.213960647583008,0.698704183101654
1729260585015033900,10.509033935546874,2.7326035499572754,-3.1441688537597656,0.914058268070221
1729260585024616700,10.51861669921875,7.008577346801758,-2.9694929122924805,2.861815929412842
1729260585034199600,10.528199462890624,9.492327690124512,-4.986642360687256,6.233303070068359
1729260585043782100,10.5377822265625,7.671389579772949,-8.094919204711914,9.559326171875
1729260585053365000,10.547364990234374,6.850651264190674,-11.93061351776123,11.526226997375488
1729260585062947800,10.55694775390625,6.338587284088135,-16.778472900390625,12.241681098937988
1729260585072530700,10.56653076171875,6.501298904418945,-20.291135787963867,14.227723121643066
1729260585082113500,10.576113525390625,6.750152587890625,-21.18126678466797,15.589239120483398
1729260585091696400,10.5856962890625,6.673582553863525,-17.235502243041992,11.96172046661377
1729260585101279000,10.595279052734375,5.747560024261475,-12.495320320129395,8.118846893310547
1729260585110861800,10.60486181640625,3.8189449310302734,-9.305686950683594,6.041877269744873
1729260585120444700,10.614444580078125,1.6630117893218994,-6.764509677886963,4.252045631408691
1729260585130027500,10.624027587890625,0.34695929288864136,-4.8813581466674805,2.7732813358306885
1729260585139610400,10.6336103515625,0.05024927482008934,-3.737588882446289,1.5194423198699951
1729260585149193000,10.64319287109375,-0.10767702013254166,-2.888136863708496,0.9667003750801086
1729260585158775800,10.65277587890625,0.23449662327766418,-2.5220351219177246,1.7084753513336182
1729260585168358700,10.662358642578125,1.0839486122131348,-3.1345977783203125,2.8809585571289062
1729260585177941500,10.67194140625,1.856830358505249,-4.965106964111328,3.548556089401245
1729260585187524400,10.6815244140625,1.4021940231323242,-6.977470874786377,2.9383862018585205
1729260585197107000,10.69110693359375,0.7680960893630981,-9.176474571228027,2.610569477081299
1729260585206689800,10.700689697265625,0.885344386100769,-11.523834228515625,2.730210542678833
1729260585216272600,10.710272705078125,1.8113667964935303,-13.686945915222168,3.0388846397399902
1729260585225855500,10.71985546875,2.4335005283355713,-15.235101699829102,3.555734395980835
1729260585235438300,10.729438232421876,4.163511276245117,-15.388242721557617,3.2590243816375732
1729260585245021000,10.73902099609375,4.785645484924316,-13.311272621154785,2.469393014907837
1729260585254603800,10.748603759765626,3.9074792861938477,-10.683953285217285,1.5553346872329712
1729260585264186600,10.7581865234375,2.730210542678833,-9.116654396057129,0.5216353535652161
1729260585273769500,10.76776953125,1.3160524368286133,-8.075776100158691,-0.22492532432079315
1729260585283352300,10.777352294921876,0.2105683982372284,-7.747959613800049,-0.7465606927871704
1729260585292935200,10.78693505859375,-0.26081767678260803,-7.877171993255615,-1.0887342691421509
1729260585302517800,10.796517822265624,0.09571290761232376,-7.989634990692139,-1.1748759746551514
1729260585312100600,10.8061005859375,1.275374412536621,-8.283951759338379,-0.9284151792526245
1729260585321683500,10.815683349609374,1.5242279767990112,-8.489734649658203,-0.3756731450557709
1729260585331266300,10.825266357421874,1.3280165195465088,-8.566305160522461,0.2392822653055191
1729260585340849200,10.83484912109375,1.454836130142212,-8.48016357421875,0.23449662327766418
1729260585350432000,10.844431884765624,1.5242279767990112,-8.451449394226074,-0.33020952343940735
1729260585360014600,10.8540146484375,1.2083754539489746,-8.72901725769043,-0.06939185410737991
1729260585369597400,10.863597412109375,0.363709032535553,-9.475577354431152,0.9690931439399719
1729260585379180300,10.87318017578125,-0.41874396800994873,-9.958928108215332,1.5864413976669312
1729260585388763100,10.88276318359375,-1.2179467678070068,-10.226923942565918,1.8592232465744019
1729260585398346000,10.892345947265625,-1.9453648328781128,-10.327422142028809,1.9310078620910645
1729260585407928600,10.901928466796875,-2.2755744457244873,-10.29153060913086,1.8424733877182007
1729260585417511400,10.911511474609375,-1.950150489807129,-10.12881851196289,1.5122638940811157
1729260585427094300,10.92109423828125,-0.9092726111412048,-9.91825008392334,1.2897313833236694
1729260585436677000,10.930677001953125,0.3852444589138031,-9.741181373596191,1.3423734903335571
1729260585446260000,10.940260009765625,1.466800332069397,-9.710074424743652,1.6366907358169556
1729260585455842600,10.949842529296875,1.9334007501602173,-9.856036186218262,2.091326951980591
1729260585465425400,10.95942529296875,1.6342978477478027,-10.028319358825684,2.313859462738037
1729260585475008300,10.96900830078125,1.0289137363433838,-10.12881851196289,2.2085752487182617
1729260585484591000,10.978591064453125,0.1866401731967926,-10.403992652893066,1.9812572002410889
1729260585494174000,10.988174072265625,-0.48813581466674805,-11.48076343536377,1.9094724655151367
1729260585503756800,10.9977568359375,-0.9355936646461487,-12.772887229919434,1.2921242713928223
1729260585513339400,11.00733935546875,-1.1724830865859985,-13.782658576965332,0.1986042857170105
1729260585522922200,11.016922119140625,-1.31365966796875,-14.182259559631348,-0.851844847202301
1729260585532505000,11.026505126953126,-0.9978070259094238,-14.11526107788086,-1.794616937637329
1729260585542088000,11.036087890625,-0.39481574296951294,-13.878371238708496,-2.0099709033966064
1729260585551670500,11.04567041015625,-0.10049854964017868,-13.830514907836914,-1.94297194480896
1729260585561253400,11.05525341796875,-0.5623133182525635,-14.184652328491211,-1.7084753513336182
1729260585570836200,11.064836181640626,-1.8376877307891846,-14.672788619995117,-1.5625132322311401
1729260585580419000,11.074419189453126,-3.036491870880127,-15.306886672973633,-1.5744773149490356
1729260585590002000,11.084001953125,-3.31884503364563,-15.610774993896484,-2.00518536567688
1729260585599584800,11.093584716796874,-4.297509670257568,-16.51047706604004,-2.3952155113220215
1729260585609167400,11.10316748046875,-4.902893543243408,-16.31665802001953,-2.8043880462646484
1729260585618750200,11.112750244140624,-4.783252239227295,-14.763715744018555,-3.177668571472168
1729260585628333000,11.1223330078125,-4.000799655914307,-13.007384300231934,-2.6775684356689453
1729260585637916000,11.131916015625,-3.0484559535980225,-12.162717819213867,-1.4428720474243164
1729260585647498800,11.141498779296874,-1.7730815410614014,-12.351750373840332,0.4163511395454407
1729260585657081300,11.151081298828124,0.3397808074951172,-12.77767276763916,2.6560330390930176
1729260585666664200,11.160664306640625,2.667997360229492,-13.325629234313965,3.9194436073303223
1729260585676247000,11.1702470703125,4.7952165603637695,-14.043476104736328,5.051248550415039
1729260585685830000,11.179829833984375,6.056233882904053,-14.761322975158691,6.601797580718994
1729260585695412700,11.189412841796875,6.034698486328125,-15.328421592712402,7.8819580078125
1729260585704995300,11.198995361328125,5.4795637130737305,-15.64666748046875,8.886942863464355
1729260585714578200,11.208578125,5.027320384979248,-15.574882507324219,9.578469276428223
1729260585724161000,11.2181611328125,4.510470867156982,-15.309279441833496,9.753145217895508
1729260585733743900,11.227743896484375,3.280559778213501,-15.165709495544434,9.980463027954102
1729260585743326500,11.237326416015625,2.541177749633789,-14.7206449508667,9.745966911315918
1729260585752909300,11.246909423828125,2.383251428604126,-13.773087501525879,9.042476654052734
1729260585762492200,11.2564921875,2.5052852630615234,-11.789437294006348,7.637889862060547
1729260585772075000,11.266074951171875,2.4526431560516357,-9.305686950683594,6.405586242675781
1729260585781657900,11.275657958984375,2.328216314315796,-7.202396392822266,5.678168296813965
1729260585791240700,11.28524072265625,1.3758729696273804,-5.527420520782471,4.878965377807617
1729260585800823300,11.2948232421875,0.8135597109794617,-4.41475772857666,4.4961137771606445
1729260585810406100,11.30440625,0.48813581466674805,-3.8763725757598877,3.720839262008667
1729260585819989000,11.313989013671875,0.09810572862625122,-3.5126636028289795,2.9838497638702393
1729260585829571800,11.32357177734375,0.16271193325519562,-3.565305709838867,2.392822742462158
1729260585839154400,11.333154541015626,1.3280165195465088,-3.7710886001586914,0.9786644577980042
1729260585848737300,11.3427373046875,2.273181438446045,-4.2209391593933105,0.11724831163883209
1729260585858320100,11.352320068359376,1.7730815410614014,-4.685146808624268,-1.100698471069336
1729260585867903000,11.361903076171876,1.155733346939087,-4.843072891235352,-2.069791555404663
1729260585877485800,11.37148583984375,1.184447169303894,-5.723631858825684,-1.5337992906570435
1729260585887068700,11.381068603515626,1.0289137363433838,-5.142175674438477,-1.6031911373138428
1729260585896651300,11.3906513671875,0.638883650302887,-4.47697114944458,-0.03349951654672623
1729260585906234000,11.400234130859374,1.6917256116867065,-4.039084434509277,2.0338993072509766
1729260585915817000,11.40981689453125,1.9621145725250244,-3.5030922889709473,3.6681971549987793
1729260585925399800,11.41939990234375,2.069791555404663,-2.8139593601226807,4.4482574462890625
1729260585934982400,11.428982421875,2.148754835128784,-2.321038007736206,4.816751956939697
1729260585944565200,11.438565185546874,2.6368906497955322,-1.8137595653533936,5.271388053894043
1729260585954148000,11.448148193359375,3.043670415878296,-1.3926228284835815,6.226124286651611
1729260585963731000,11.45773095703125,3.4241292476654053,-1.7922241687774658,7.482356548309326
1729260585973313500,11.4673134765625,3.4576287269592285,-2.7565317153930664,8.293522834777832
1729260585982896400,11.476896484375,3.3858439922332764,-3.8835511207580566,7.867600917816162
1729260585992479200,11.486479248046875,1.9980069398880005,-5.06799840927124,6.675975322723389
1729260586002062000,11.49606201171875,-0.605384111404419,-6.8865437507629395,5.79063081741333
1729260586011645000,11.50564501953125,-3.2518460750579834,-9.418149948120117,5.2283172607421875
1729260586021227800,11.515227783203125,-11.526226997375488,-13.818551063537598,4.333401679992676
1729260586030810400,11.524810302734375,-20.494525909423828,-23.411376953125,-2.612962245941162
1729260586040393200,11.534393310546875,-15.448062896728516,-29.508289337158203,-7.429714202880859
1729260586049976000,11.54397607421875,-12.380464553833008,-29.84807014465332,-10.001998901367188
1729260586059559000,11.553558837890625,-13.462019920349121,-26.486154556274414,-12.05504035949707
1729260586069141500,11.5631416015625,-15.04128360748291,-21.262622833251953,-10.066604614257812
1729260586078724400,11.572724365234375,-13.304094314575195,-14.679966926574707,-3.1345977783203125
1729260586088307200,11.58230712890625,-8.874979019165039,-9.095118522644043,0.12921242415905
1729260586097890000,11.59189013671875,-4.5822553634643555,-5.883950710296631,0.6604190468788147
1729260586107473000,11.601472900390625,-0.9762716293334961,-4.043870449066162,0.5383850932121277
1729260586117055500,11.611055419921875,2.014756679534912,-3.1800613403320312,0.6915257573127747
1729260586126638300,11.620638427734375,4.895715236663818,-4.6995038986206055,3.759124279022217
1729260586136221200,11.63022119140625,6.6113691329956055,-8.34855842590332,7.9968132972717285
1729260586145804000,11.639803955078126,6.814758777618408,-11.861222267150879,10.095318794250488
1729260586155386600,11.64938671875,6.412764549255371,-15.5294189453125,11.102697372436523
1729260586164969500,11.658969482421876,7.022934436798096,-19.65943145751953,12.612567901611328
1729260586174552300,11.66855224609375,7.293323516845703,-22.138395309448242,14.285151481628418
1729260586184135200,11.67813525390625,7.133004188537598,-19.783857345581055,12.890135765075684
1729260586193718000,11.687718017578124,6.4701924324035645,-13.737195014953613,8.922835350036621
1729260586203300600,11.697300537109374,4.319045066833496,-9.915857315063477,6.6592254638671875
1729260586212883500,11.706883544921874,1.9645073413848877,-7.326822757720947,4.735395908355713
1729260586222466300,11.71646630859375,0.7106683254241943,-5.422136306762695,2.964707374572754
1729260586232049200,11.726049072265624,0.4498506486415863,-4.027120590209961,1.8616160154342651
1729260586241632000,11.735632080078124,0.6532405614852905,-3.1130621433258057,1.4261223077774048
1729260586251214600,11.745214599609374,2.091326951980591,-2.9144580364227295,2.4430718421936035
1729260586260797400,11.75479736328125,2.651247501373291,-3.273381471633911,4.390829563140869
1729260586270380300,11.76438037109375,3.2925238609313965,-3.9601213932037354,4.048655986785889
1729260586279963100,11.773963134765625,2.5938198566436768,-5.410171985626221,2.8115665912628174
1729260586289545700,11.783545654296875,2.1511476039886475,-7.149754047393799,2.438286304473877
1729260586299128600,11.793128662109375,1.6654045581817627,-9.17886734008789,2.9383862018585205
1729260586308711400,11.80271142578125,1.5074782371520996,-11.22233772277832,3.297309637069702
1729260586318294300,11.812294189453125,1.6007983684539795,-13.215559005737305,3.6299118995666504
1729260586327876900,11.821876953125,1.9836499691009521,-14.593825340270996,4.110869407653809
1729260586337459700,11.831459716796875,3.074777126312256,-14.445469856262207,3.3882367610931396
1729260586347042600,11.84104248046875,4.783252239227295,-12.739387512207031,2.1056840419769287
1729260586356625400,11.85062548828125,4.503292083740234,-10.336994171142578,0.9260223507881165
1729260586366208300,11.860208251953125,3.8811583518981934,-8.597412109375,-0.32542386651039124
1729260586375790800,11.869790771484375,2.6392834186553955,-7.75753116607666,-0.47617170214653015
1729260586385373700,11.879373779296875,1.3495519161224365,-7.690532207489014,-0.519242525100708
1729260586394956500,11.88895654296875,0.09571290761232376,-8.061419486999512,-0.5407779216766357
1729260586404539400,11.898539306640625,-0.6101697683334351,-8.645268440246582,-0.5742774605751038
1729260586414122000,11.9081220703125,-0.6436693072319031,-8.72901725769043,-0.7226324677467346
1729260586423704800,11.917704833984375,-0.21774685382843018,-8.724231719970703,-0.4713860750198364
1729260586433287700,11.92728759765625,0.5264210104942322,-9.059226989746094,-0.16031911969184875
1729260586442870500,11.93687060546875,1.2370892763137817,-9.351150512695312,-0.48574298620224
1729260586452453000,11.946453125,1.1629117727279663,-9.248259544372559,-1.1102696657180786
1729260586462036000,11.956035888671876,0.6580262184143066,-9.198010444641113,-0.6269195079803467
1729260586471618800,11.965618896484376,-0.09092725813388824,-9.336793899536133,0.3613162338733673
1729260586481201700,11.97520166015625,-0.9475577473640442,-9.422935485839844,0.8422735929489136
1729260586490784300,11.9847841796875,-1.7252250909805298,-9.623932838439941,1.0863415002822876
1729260586500367000,11.9943671875,-2.342573404312134,-10.047462463378906,1.2251251935958862
1729260586509950000,12.003949951171874,-2.4191436767578125,-10.348958015441895,0.8566305041313171
1729260586519532800,12.01353271484375,-1.667797327041626,-10.51645565032959,0.2273181527853012
1729260586529115600,12.02311572265625,-0.5264210104942322,-10.456634521484375,-0.11964113265275955
1729260586538698200,12.0326982421875,0.5910272002220154,-10.217352867126465,-0.17946170270442963
1729260586548281000,12.042281005859374,1.337587833404541,-9.860821723937988,0.1579262912273407
1729260586557864000,12.051864013671874,1.8137595653533936,-9.638289451599121,0.9451649188995361
1729260586567446800,12.06144677734375,1.9286150932312012,-9.647860527038574,1.797009825706482
1729260586577029400,12.071029296875,1.5050854682922363,-9.992427825927734,2.4119651317596436
1729260586586612200,12.0806123046875,0.8159525394439697,-10.353743553161621,2.5363919734954834
1729260586596195000,12.090195068359375,-0.11485548317432404,-10.77248764038086,2.5459632873535156
1729260586605778000,12.09977783203125,-0.9403793215751648,-11.542976379394531,2.854637384414673
1729260586615360500,12.109360595703125,-1.124626636505127,-12.447463035583496,2.9144580364227295
1729260586624943400,12.118943359375,-0.7202396392822266,-13.270594596862793,2.187039852142334
1729260586634526200,12.128526123046875,0.28235307335853577,-13.72523021697998,1.2849457263946533
1729260586644109000,12.138109130859375,0.8207381963729858,-13.818551063537598,0.5623133182525635
1729260586653692000,12.14769189453125,0.380458801984787,-13.99801254272461,-0.040677983313798904
1729260586663274500,12.1572744140625,-0.2512463629245758,-14.187045097351074,-0.7154539823532104
1729260586672857300,12.166857421875,-1.698904037475586,-14.816357612609863,-1.521835207939148
1729260586682440200,12.176440185546875,-3.115455150604248,-15.136996269226074,-2.328216314315796
1729260586692023000,12.18602294921875,-4.051048755645752,-15.41217041015625,-3.1202406883239746
1729260586701605600,12.195605712890625,-4.704289436340332,-15.88594913482666,-3.7567315101623535
1729260586711188500,12.2051884765625,-4.821537494659424,-16.153945922851562,-4.012763500213623
1729260586720771300,12.214771240234375,-4.163511276245117,-15.168102264404297,-3.735196113586426
