Date;Timestamp;DeviceOrientation;AccelerationX;AccelerationY;AccelerationZ;Label
2024-10-17 19:22:22;1729182142.548472;faceUp;-0.0399932861328125;-0.1611480712890625;-1.0128326416015625;
2024-10-17 19:22:22;1729182142.5506902;faceUp;-0.0119781494140625;-0.1740570068359375;-1.032196044921875;
2024-10-17 19:22:22;1729182142.551038;faceUp;-0.0340118408203125;-0.19085693359375;-0.931060791015625;
2024-10-17 19:22:22;1729182142.551141;faceUp;-0.03192138671875;-0.195465087890625;-0.9702301025390625;
2024-10-17 19:22:22;1729182142.5512428;faceUp;-0.0260467529296875;-0.187652587890625;-0.9798583984375;
2024-10-17 19:22:22;1729182142.575921;faceUp;-0.0185394287109375;-0.18389892578125;-0.982757568359375;
2024-10-17 19:22:22;1729182142.626258;faceUp;-0.0113372802734375;-0.1813812255859375;-0.9862823486328125;
2024-10-17 19:22:22;1729182142.6764588;faceUp;-0.0058135986328125;-0.1933746337890625;-0.9816741943359375;
2024-10-17 19:22:22;1729182142.726821;faceUp;-0.00927734375;-0.1883697509765625;-0.97528076171875;
2024-10-17 19:22:22;1729182142.777106;faceUp;0.0006561279296875;-0.1922607421875;-0.98822021484375;
2024-10-17 19:22:22;1729182142.827261;faceUp;-0.004852294921875;-0.19500732421875;-0.96539306640625;
2024-10-17 19:22:22;1729182142.877397;faceUp;-0.0025482177734375;-0.1878662109375;-0.993377685546875;
2024-10-17 19:22:22;1729182142.927905;faceUp;0.0056304931640625;-0.17840576171875;-0.98663330078125;
2024-10-17 19:22:22;1729182142.978189;faceUp;-0.001708984375;-0.18951416015625;-0.9593963623046875;
2024-10-17 19:22:22;1729182143.028523;faceUp;-0.0164031982421875;-0.187042236328125;-0.970916748046875;
2024-10-17 19:22:22;1729182143.078672;faceUp;-0.006195068359375;-0.1860809326171875;-1.0000152587890625;
2024-10-17 19:22:22;1729182143.1289911;faceUp;-0.018035888671875;-0.1949462890625;-0.9493560791015625;
2024-10-17 19:22:22;1729182143.1792622;faceUp;-0.016021728515625;-0.1952056884765625;-0.999847412109375;
2024-10-17 19:22:22;1729182143.229512;faceUp;-0.0333251953125;-0.1949462890625;-0.9554595947265625;
2024-10-17 19:22:22;1729182143.2797542;faceUp;-0.0341339111328125;-0.203277587890625;-0.9502105712890625;
2024-10-17 19:22:22;1729182143.330008;faceUp;-0.025787353515625;-0.1934661865234375;-0.96044921875;
2024-10-17 19:22:22;1729182143.380363;faceUp;-0.0055694580078125;-0.2019195556640625;-0.961181640625;
2024-10-17 19:22:22;1729182143.4306211;faceUp;-0.005706787109375;-0.205718994140625;-0.942474365234375;
2024-10-17 19:22:22;1729182143.4808002;faceUp;0.003204345703125;-0.19610595703125;-0.976806640625;
2024-10-17 19:22:22;1729182143.531127;faceUp;0.022735595703125;-0.2034912109375;-0.97821044921875;
2024-10-17 19:22:22;1729182143.581317;faceUp;0.0529022216796875;-0.2177734375;-0.975067138671875;
2024-10-17 19:22:22;1729182143.6316261;faceUp;0.0969696044921875;-0.2465667724609375;-0.92877197265625;
2024-10-17 19:22:22;1729182143.682832;faceUp;0.1346588134765625;-0.231536865234375;-1.0038299560546875;
2024-10-17 19:22:22;1729182143.732719;faceUp;0.0688018798828125;-0.26611328125;-0.9392547607421875;
2024-10-17 19:22:22;1729182143.782775;faceUp;0.0253448486328125;-0.28204345703125;-0.91058349609375;
2024-10-17 19:22:22;1729182143.832809;faceUp;0.0364990234375;-0.243865966796875;-0.975555419921875;
2024-10-17 19:22:22;1729182143.8829808;faceUp;0.0503387451171875;-0.2480010986328125;-0.936370849609375;
2024-10-17 19:22:22;1729182143.933281;faceUp;0.0489654541015625;-0.27301025390625;-0.932769775390625;
2024-10-17 19:22:22;1729182143.983454;faceUp;0.049163818359375;-0.250762939453125;-1.033935546875;
2024-10-17 19:22:22;1729182144.033792;faceUp;0.0048828125;-0.2181396484375;-1.09136962890625;
2024-10-17 19:22:22;1729182144.083973;faceUp;-0.0468902587890625;-0.2220916748046875;-1.107421875;
2024-10-17 19:22:22;1729182144.1343222;faceUp;-0.0836029052734375;-0.19171142578125;-1.121673583984375;
2024-10-17 19:22:22;1729182144.184519;faceUp;-0.0693206787109375;-0.139129638671875;-1.2699127197265625;
2024-10-17 19:22:22;1729182144.234857;faceUp;-0.0860443115234375;-0.1492767333984375;-1.052337646484375;
2024-10-17 19:22:22;1729182144.285049;faceUp;-0.1154327392578125;-0.0910797119140625;-1.0168914794921875;
2024-10-17 19:22:22;1729182144.3354359;faceUp;-0.0584259033203125;-0.0432586669921875;-1.0496826171875;
2024-10-17 19:22:22;1729182144.3856091;faceUp;-0.0034637451171875;-0.103363037109375;-0.8943634033203125;
2024-10-17 19:22:22;1729182144.43593;faceUp;-0.025909423828125;-0.14288330078125;-0.686981201171875;
2024-10-17 19:22:22;1729182144.4861479;faceUp;-0.012969970703125;-0.1610870361328125;-0.802703857421875;
2024-10-17 19:22:22;1729182144.536574;faceUp;0.0213623046875;-0.185638427734375;-0.872161865234375;
2024-10-17 19:22:22;1729182144.586711;faceUp;-0.014068603515625;-0.223724365234375;-0.87139892578125;
2024-10-17 19:22:22;1729182144.637033;faceUp;-0.0027923583984375;-0.2969818115234375;-0.9437713623046875;
2024-10-17 19:22:22;1729182144.6872401;faceUp;0.0521087646484375;-0.276763916015625;-0.9331207275390625;
2024-10-17 19:22:22;1729182144.737543;faceUp;0.0404205322265625;-0.215728759765625;-1.007904052734375;
2024-10-17 19:22:22;1729182144.7878861;faceUp;0.0063018798828125;-0.091552734375;-1.303863525390625;
2024-10-17 19:22:22;1729182144.838091;faceUp;0.0545196533203125;-0.0131378173828125;-1.2183380126953125;
2024-10-17 19:22:22;1729182144.8882709;faceUp;0.071868896484375;0.0015106201171875;-1.108795166015625;
2024-10-17 19:22:22;1729182144.938621;faceUp;0.0734405517578125;-0.102935791015625;-0.8941497802734375;
2024-10-17 19:22:22;1729182144.98883;faceUp;0.07098388671875;-0.1853790283203125;-0.80926513671875;
2024-10-17 19:22:22;1729182145.0391312;faceUp;0.0595855712890625;-0.185272216796875;-0.7824249267578125;
2024-10-17 19:22:22;1729182145.089386;faceUp;0.011444091796875;-0.1295013427734375;-0.8550567626953125;
2024-10-17 19:22:22;1729182145.139678;faceUp;-0.0331878662109375;-0.1228790283203125;-0.92999267578125;
2024-10-17 19:22:22;1729182145.1899362;faceUp;-0.0515899658203125;-0.1559600830078125;-1.018218994140625;
2024-10-17 19:22:22;1729182145.240234;faceUp;-0.05511474609375;-0.177581787109375;-1.1161956787109375;
2024-10-17 19:22:22;1729182145.2904549;faceUp;0.0503997802734375;-0.199462890625;-1.2553253173828125;
2024-10-17 19:22:22;1729182145.340842;faceUp;-0.0010986328125;-0.1979827880859375;-1.2524261474609375;
2024-10-17 19:22:22;1729182145.390986;faceUp;-0.1416778564453125;-0.19140625;-1.0467376708984375;
2024-10-17 19:22:22;1729182145.441365;faceUp;-0.1241302490234375;-0.151092529296875;-1.0282135009765625;
2024-10-17 19:22:22;1729182145.491502;faceUp;-0.085662841796875;-0.050628662109375;-1.1158294677734375;
2024-10-17 19:22:22;1729182145.542947;faceUp;-0.05828857421875;-0.0736541748046875;-0.9409027099609375;
2024-10-17 19:22:22;1729182145.59276;faceUp;-0.0242156982421875;-0.1455230712890625;-0.6605987548828125;
2024-10-17 19:22:22;1729182145.642642;faceUp;-0.0264892578125;-0.13861083984375;-0.7335205078125;
2024-10-17 19:22:22;1729182145.6926498;faceUp;0.0623016357421875;-0.1990966796875;-0.798248291015625;
2024-10-17 19:22:22;1729182145.7429008;faceUp;0.05975341796875;-0.235443115234375;-0.8366546630859375;
2024-10-17 19:22:22;1729182145.793149;faceUp;0.030120849609375;-0.2157745361328125;-1.0030975341796875;
2024-10-17 19:22:22;1729182145.843488;faceUp;0.016937255859375;-0.2173919677734375;-1.1547393798828125;
2024-10-17 19:22:22;1729182145.893671;faceUp;0.09527587890625;-0.21966552734375;-1.145843505859375;
2024-10-17 19:22:22;1729182145.944006;faceUp;0.050933837890625;-0.113189697265625;-1.161285400390625;
2024-10-17 19:22:22;1729182145.9942489;faceUp;0.1181488037109375;-0.133026123046875;-1.11175537109375;
2024-10-17 19:22:22;1729182146.044639;faceUp;0.0219573974609375;-0.1415252685546875;-1.0604705810546875;
2024-10-17 19:22:22;1729182146.09472;faceUp;0.0218963623046875;-0.287841796875;-0.72503662109375;
2024-10-17 19:22:22;1729182146.145076;faceUp;0.0296630859375;-0.2631683349609375;-0.7374420166015625;
2024-10-17 19:22:22;1729182146.195333;faceUp;-0.0774078369140625;-0.173065185546875;-0.796661376953125;
2024-10-17 19:22:22;1729182146.245596;faceUp;-0.1261138916015625;-0.1846160888671875;-0.8911285400390625;
2024-10-17 19:22:22;1729182146.295865;faceUp;-0.0919952392578125;-0.247833251953125;-0.988800048828125;
2024-10-17 19:22:22;1729182146.345995;faceUp;-0.0825958251953125;-0.2732086181640625;-1.0637054443359375;
2024-10-17 19:22:22;1729182146.396408;faceUp;0.058380126953125;-0.308197021484375;-1.1329803466796875;
2024-10-17 19:22:22;1729182146.446598;faceUp;-0.101409912109375;-0.181488037109375;-1.2367706298828125;
2024-10-17 19:22:22;1729182146.496832;faceUp;-0.2581939697265625;-0.1381683349609375;-1.113037109375;
2024-10-17 19:22:22;1729182146.547017;faceUp;-0.20166015625;-0.1512451171875;-0.9773712158203125;
2024-10-17 19:22:22;1729182146.597511;faceUp;-0.1743011474609375;-0.051055908203125;-1.016815185546875;
2024-10-17 19:22:22;1729182146.647711;faceUp;-0.1298675537109375;-0.052093505859375;-0.9064483642578125;
2024-10-17 19:22:22;1729182146.699225;faceUp;0.0427398681640625;-0.1366424560546875;-0.9620819091796875;
2024-10-17 19:22:22;1729182146.749604;faceUp;-0.0641021728515625;-0.13458251953125;-0.7932281494140625;
2024-10-17 19:22:22;1729182146.799598;faceUp;0.022003173828125;-0.224639892578125;-0.72503662109375;
2024-10-17 19:22:22;1729182146.8498511;faceUp;0.080413818359375;-0.30255126953125;-0.7700958251953125;
2024-10-17 19:22:22;1729182146.900034;faceUp;0.1375885009765625;-0.2424163818359375;-1.1009521484375;
2024-10-17 19:22:22;1729182146.9506269;faceUp;0.2049713134765625;-0.1708221435546875;-1.26434326171875;
2024-10-17 19:22:22;1729182147.0008202;faceUp;0.2412872314453125;-0.19183349609375;-1.1511383056640625;
2024-10-17 19:22:22;1729182147.051134;faceUp;0.2730255126953125;-0.1324615478515625;-1.1912689208984375;
2024-10-17 19:22:22;1729182147.101299;faceUp;0.079742431640625;-0.0734710693359375;-0.999725341796875;
2024-10-17 19:22:22;1729182147.151688;faceUp;0.06488037109375;-0.02783203125;-1.0589599609375;
2024-10-17 19:22:22;1729182147.202818;faceUp;0.0347137451171875;-0.0460357666015625;-1.02532958984375;
2024-10-17 19:22:22;1729182147.2526631;faceUp;-0.03485107421875;-0.12451171875;-0.7800750732421875;
2024-10-17 19:22:22;1729182147.3028278;faceUp;-0.0453948974609375;-0.2190399169921875;-0.7150115966796875;
2024-10-17 19:22:22;1729182147.352601;faceUp;-0.0437164306640625;-0.2701416015625;-0.818634033203125;
2024-10-17 19:22:22;1729182147.402995;faceUp;-0.065826416015625;-0.3322296142578125;-0.9915618896484375;
2024-10-17 19:22:22;1729182147.453259;faceUp;0.02764892578125;-0.286651611328125;-0.9358367919921875;
2024-10-17 19:22:22;1729182147.503504;faceUp;0.0540771484375;-0.3410491943359375;-0.996551513671875;
2024-10-17 19:22:22;1729182147.55377;faceUp;-0.0831451416015625;-0.273712158203125;-1.15008544921875;
2024-10-17 19:22:22;1729182147.604001;faceUp;-0.0628814697265625;-0.300537109375;-1.0781707763671875;
2024-10-17 19:22:22;1729182147.654346;faceUp;-0.1648406982421875;-0.2581787109375;-1.0856170654296875;
2024-10-17 19:22:22;1729182147.704509;faceUp;-0.159423828125;-0.208160400390625;-1.089874267578125;
2024-10-17 19:22:22;1729182147.7547169;faceUp;-0.06524658203125;-0.1019439697265625;-1.173675537109375;
2024-10-17 19:22:22;1729182147.803576;faceUp;0.033111572265625;-0.287689208984375;-0.755767822265625;
2024-10-17 19:22:22;1729182147.854162;faceUp;0.0211181640625;-0.3528900146484375;-0.7696533203125;
2024-10-17 19:22:22;1729182147.904262;faceUp;-0.014007568359375;-0.33538818359375;-0.805419921875;
2024-10-17 19:22:22;1729182147.954638;faceUp;0.035400390625;-0.3695220947265625;-0.71728515625;
2024-10-17 19:22:22;1729182148.00499;faceUp;0.0573577880859375;-0.4024200439453125;-0.822265625;
2024-10-17 19:22:22;1729182148.055007;faceUp;0.0235137939453125;-0.4022979736328125;-0.9828033447265625;
2024-10-17 19:22:22;1729182148.105425;faceUp;0.0999298095703125;-0.3818511962890625;-1.018035888671875;
2024-10-17 19:22:22;1729182148.155881;faceUp;0.14947509765625;-0.334136962890625;-1.0998382568359375;
2024-10-17 19:22:22;1729182148.206073;faceUp;0.163665771484375;-0.2825775146484375;-1.07537841796875;
2024-10-17 19:22:22;1729182148.256367;faceUp;0.152252197265625;-0.352264404296875;-0.8924560546875;
2024-10-17 19:22:22;1729182148.30656;faceUp;-0.0128936767578125;-0.32586669921875;-0.9356231689453125;
2024-10-17 19:22:22;1729182148.356988;faceUp;-0.0956268310546875;-0.2673492431640625;-1.0586090087890625;
2024-10-17 19:22:22;1729182148.407076;faceUp;-0.0034332275390625;-0.247314453125;-0.813446044921875;
2024-10-17 19:22:22;1729182148.45738;faceUp;0.008331298828125;-0.35943603515625;-0.6469268798828125;
2024-10-17 19:22:22;1729182148.507643;faceUp;-0.0066375732421875;-0.3331451416015625;-0.8037872314453125;
2024-10-17 19:22:22;1729182148.5579848;faceUp;0.10113525390625;-0.29852294921875;-0.892486572265625;
2024-10-17 19:22:22;1729182148.608131;faceUp;0.1276397705078125;-0.355560302734375;-0.888671875;
2024-10-17 19:22:22;1729182148.6584702;faceUp;-0.0056610107421875;-0.311004638671875;-1.0614166259765625;
2024-10-17 19:22:22;1729182148.708885;faceUp;-0.11236572265625;-0.3739471435546875;-0.9930419921875;
2024-10-17 19:22:22;1729182148.758877;faceUp;-0.1990203857421875;-0.361785888671875;-1.0685577392578125;
2024-10-17 19:22:22;1729182148.8091989;faceUp;-0.3698577880859375;-0.221282958984375;-1.3221893310546875;
2024-10-17 19:22:22;1729182148.8594298;faceUp;-0.3386688232421875;-0.2257080078125;-1.0239715576171875;
2024-10-17 19:22:22;1729182148.909575;faceUp;-0.190277099609375;-0.205963134765625;-0.9894866943359375;
2024-10-17 19:22:22;1729182148.959935;faceUp;-0.106658935546875;-0.2205352783203125;-0.815185546875;
2024-10-17 19:22:22;1729182149.0101662;faceUp;-0.0605926513671875;-0.269989013671875;-0.7816009521484375;
2024-10-17 19:22:22;1729182149.0604758;faceUp;-0.1280670166015625;-0.2570037841796875;-0.8191986083984375;
2024-10-17 19:22:22;1729182149.110721;faceUp;-0.0635986328125;-0.2623443603515625;-0.95684814453125;
2024-10-17 19:22:22;1729182149.161088;faceUp;0.010009765625;-0.2792510986328125;-0.980743408203125;
2024-10-17 19:22:22;1729182149.2112331;faceUp;0.0389862060546875;-0.3365325927734375;-0.965789794921875;
2024-10-17 19:22:22;1729182149.261785;faceUp;0.0486602783203125;-0.3058929443359375;-1.068572998046875;
2024-10-17 19:22:22;1729182149.312701;faceUp;0.026947021484375;-0.27178955078125;-1.115936279296875;
2024-10-17 19:22:22;1729182149.362684;faceUp;0.09259033203125;-0.24676513671875;-1.0023956298828125;
2024-10-17 19:22:22;1729182149.4126081;faceUp;0.0890960693359375;-0.2071075439453125;-0.95037841796875;
2024-10-17 19:22:22;1729182149.462827;faceUp;-0.008697509765625;-0.21502685546875;-0.9639434814453125;
2024-10-17 19:22:22;1729182149.5130382;faceUp;-0.0382080078125;-0.1933135986328125;-1.026611328125;
2024-10-17 19:22:22;1729182149.5634599;faceUp;-0.0727691650390625;-0.24920654296875;-0.879913330078125;
2024-10-17 19:22:22;1729182149.61355;faceUp;-0.08001708984375;-0.3674163818359375;-0.710205078125;
2024-10-17 19:22:22;1729182149.663805;faceUp;-0.0990447998046875;-0.349029541015625;-0.8430328369140625;
2024-10-17 19:22:22;1729182149.714079;faceUp;-0.1033172607421875;-0.32904052734375;-0.9449310302734375;
2024-10-17 19:22:22;1729182149.764422;faceUp;0.03509521484375;-0.3195037841796875;-0.819488525390625;
2024-10-17 19:22:22;1729182149.814553;faceUp;-0.0257568359375;-0.224273681640625;-1.13555908203125;
2024-10-17 19:22:22;1729182149.865007;faceUp;-0.045166015625;-0.2710723876953125;-1.0285186767578125;
2024-10-17 19:22:22;1729182149.915138;faceUp;-0.089569091796875;-0.25341796875;-1.0821990966796875;
2024-10-17 19:22:22;1729182149.965471;faceUp;-0.28607177734375;-0.12884521484375;-1.3088226318359375;
2024-10-17 19:22:22;1729182150.0156589;faceUp;-0.1298980712890625;-0.138763427734375;-1.0199737548828125;
2024-10-17 19:22:22;1729182150.065991;faceUp;-0.160125732421875;-0.272735595703125;-0.8442840576171875;
2024-10-17 19:22:22;1729182150.116221;faceUp;-0.0910797119140625;-0.2473907470703125;-0.923126220703125;
2024-10-17 19:22:22;1729182150.166535;faceUp;0.0371246337890625;-0.2561187744140625;-0.8139801025390625;
2024-10-17 19:22:22;1729182150.2167091;faceUp;-0.03997802734375;-0.33551025390625;-0.76220703125;
2024-10-17 19:22:22;1729182150.267132;faceUp;-0.00347900390625;-0.3056793212890625;-0.8740234375;
2024-10-17 19:22:22;1729182150.31733;faceUp;-0.0195465087890625;-0.3047637939453125;-1.0248565673828125;
2024-10-17 19:22:22;1729182150.3676682;faceUp;-0.0305633544921875;-0.3719482421875;-0.9277496337890625;
2024-10-17 19:22:22;1729182150.417877;faceUp;0.045440673828125;-0.3697509765625;-1.0534515380859375;
2024-10-17 19:22:22;1729182150.468162;faceUp;0.034149169921875;-0.315673828125;-1.1744842529296875;
2024-10-17 19:22:22;1729182150.51829;faceUp;0.1155242919921875;-0.281158447265625;-1.015869140625;
2024-10-17 19:22:22;1729182150.56862;faceUp;0.074188232421875;-0.2764739990234375;-0.957366943359375;
2024-10-17 19:22:22;1729182150.618892;faceUp;0.030303955078125;-0.291656494140625;-0.9190826416015625;
2024-10-17 19:22:22;1729182150.669116;faceUp;-0.0139617919921875;-0.2481689453125;-1.03466796875;
2024-10-17 19:22:22;1729182150.7194161;faceUp;0.027130126953125;-0.2292022705078125;-0.89501953125;
2024-10-17 19:22:22;1729182150.7697558;faceUp;0.0106201171875;-0.338470458984375;-0.69586181640625;
2024-10-17 19:22:22;1729182150.819998;faceUp;-0.0279998779296875;-0.3314361572265625;-0.7980499267578125;
2024-10-17 19:22:22;1729182150.87029;faceUp;-0.026580810546875;-0.2974700927734375;-0.98248291015625;
2024-10-17 19:22:22;1729182150.920463;faceUp;0.0523834228515625;-0.2981109619140625;-0.8368072509765625;
2024-10-17 19:22:22;1729182150.97083;faceUp;-1.52587890625e-05;-0.3039703369140625;-0.91619873046875;
2024-10-17 19:22:22;1729182151.021033;faceUp;-0.0728912353515625;-0.30926513671875;-0.974365234375;
2024-10-17 19:22:22;1729182151.0713658;faceUp;-0.0700225830078125;-0.3562164306640625;-1.0859527587890625;
2024-10-17 19:22:22;1729182151.121581;faceUp;-0.2837982177734375;-0.340789794921875;-1.2021636962890625;
2024-10-17 19:22:22;1729182151.17254;faceUp;-0.2671661376953125;-0.2166748046875;-1.2152862548828125;
2024-10-17 19:22:22;1729182151.222157;faceUp;-0.16009521484375;-0.2727813720703125;-0.9398956298828125;
2024-10-17 19:22:22;1729182151.272774;faceUp;-0.14044189453125;-0.325897216796875;-0.8170623779296875;
2024-10-17 19:22:22;1729182151.3225589;faceUp;-0.04156494140625;-0.2740478515625;-0.828857421875;
2024-10-17 19:22:22;1729182151.37294;faceUp;-0.01629638671875;-0.29852294921875;-0.7519073486328125;
2024-10-17 19:22:22;1729182151.4233909;faceUp;-0.0135955810546875;-0.3221588134765625;-0.7719879150390625;
2024-10-17 19:22:22;1729182151.47347;faceUp;0.014312744140625;-0.3584747314453125;-0.830780029296875;
2024-10-17 19:22:22;1729182151.523778;faceUp;-0.0229034423828125;-0.413726806640625;-0.9697418212890625;
2024-10-17 19:22:22;1729182151.574082;faceUp;0.022003173828125;-0.4318084716796875;-1.03912353515625;
2024-10-17 19:22:22;1729182151.624265;faceUp;0.0366363525390625;-0.4183502197265625;-1.1312408447265625;
2024-10-17 19:22:22;1729182151.6745481;faceUp;0.058197021484375;-0.367034912109375;-1.07916259765625;
2024-10-17 19:22:22;1729182151.724812;faceUp;0.135284423828125;-0.3446807861328125;-0.9759063720703125;
2024-10-17 19:22:22;1729182151.775188;faceUp;0.064300537109375;-0.291351318359375;-1.0095672607421875;
2024-10-17 19:22:22;1729182151.825245;faceUp;0.041412353515625;-0.27618408203125;-1.057159423828125;
2024-10-17 19:22:22;1729182151.8755522;faceUp;0.0101776123046875;-0.2275238037109375;-0.9985504150390625;
2024-10-17 19:22:22;1729182151.925847;faceUp;0.026397705078125;-0.30023193359375;-0.7128448486328125;
2024-10-17 19:22:22;1729182151.976125;faceUp;0.0354156494140625;-0.2949066162109375;-0.737762451171875;
2024-10-17 19:22:22;1729182152.026328;faceUp;0.0182647705078125;-0.318939208984375;-0.8596038818359375;
2024-10-17 19:22:22;1729182152.076692;faceUp;-0.0254364013671875;-0.336822509765625;-0.8734283447265625;
2024-10-17 19:22:22;1729182152.126947;faceUp;0.025787353515625;-0.373992919921875;-0.873199462890625;
2024-10-17 19:22:22;1729182152.179848;faceUp;-0.0874481201171875;-0.3736419677734375;-1.0526275634765625;
2024-10-17 19:22:22;1729182152.23004;faceUp;-0.0543365478515625;-0.3662109375;-1.0222015380859375;
2024-10-17 19:22:22;1729182152.280285;faceUp;-0.1317138671875;-0.3595428466796875;-1.2129058837890625;
2024-10-17 19:22:22;1729182152.330604;faceUp;-0.2725372314453125;-0.326568603515625;-1.1231231689453125;
2024-10-17 19:22:22;1729182152.3808532;faceUp;-0.1054840087890625;-0.147369384765625;-1.1332855224609375;
2024-10-17 19:22:22;1729182152.431113;faceUp;-0.1122283935546875;-0.2978668212890625;-0.7972564697265625;
2024-10-17 19:22:22;1729182152.481357;faceUp;-0.0938873291015625;-0.377471923828125;-0.6608428955078125;
2024-10-17 19:22:22;1729182152.531708;faceUp;0.054534912109375;-0.305419921875;-0.8079833984375;
2024-10-17 19:22:22;1729182152.581989;faceUp;0.0297088623046875;-0.35430908203125;-0.83013916015625;
2024-10-17 19:22:22;1729182152.632653;faceUp;0.02911376953125;-0.3983917236328125;-0.7761993408203125;
2024-10-17 19:22:22;1729182152.682602;faceUp;-0.0134124755859375;-0.421173095703125;-0.8988800048828125;
2024-10-17 19:22:22;1729182152.73275;faceUp;-0.03094482421875;-0.48748779296875;-0.86663818359375;
2024-10-17 19:22:22;1729182152.783104;faceUp;-0.013671875;-0.52197265625;-0.8668975830078125;
2024-10-17 19:22:22;1729182152.833377;faceUp;0.04327392578125;-0.4169158935546875;-1.153076171875;
2024-10-17 19:22:22;1729182152.88361;faceUp;0.08441162109375;-0.4287567138671875;-1.0763397216796875;
2024-10-17 19:22:22;1729182152.933823;faceUp;0.04766845703125;-0.3136444091796875;-1.100982666015625;
2024-10-17 19:22:22;1729182152.984178;faceUp;-0.0179901123046875;-0.255218505859375;-1.03662109375;
2024-10-17 19:22:22;1729182153.034181;faceUp;0.0428466796875;-0.2021484375;-0.9759063720703125;
2024-10-17 19:22:22;1729182153.0846128;faceUp;0.012451171875;-0.2108917236328125;-0.9617767333984375;
2024-10-17 19:22:22;1729182153.1347852;faceUp;-0.06842041015625;-0.191436767578125;-0.88409423828125;
2024-10-17 19:22:22;1729182153.185225;faceUp;0.007232666015625;-0.2910308837890625;-0.664581298828125;
2024-10-17 19:22:22;1729182153.235467;faceUp;0.0717315673828125;-0.206787109375;-0.814483642578125;
2024-10-17 19:22:22;1729182153.285773;faceUp;0.0113983154296875;-0.2610931396484375;-0.8779144287109375;
2024-10-17 19:22:22;1729182153.335926;faceUp;0.0442047119140625;-0.2783355712890625;-0.847198486328125;
2024-10-17 19:22:22;1729182153.386282;faceUp;-0.0766143798828125;-0.3016510009765625;-1.04754638671875;
2024-10-17 19:22:22;1729182153.436512;faceUp;-0.092529296875;-0.3052978515625;-1.1330108642578125;
2024-10-17 19:22:22;1729182153.486786;faceUp;-0.00726318359375;-0.3000640869140625;-1.03961181640625;
2024-10-17 19:22:22;1729182153.537053;faceUp;-0.1848907470703125;-0.2890167236328125;-1.1158599853515625;
2024-10-17 19:22:22;1729182153.587224;faceUp;-0.2423095703125;-0.170623779296875;-1.2774810791015625;
2024-10-17 19:22:22;1729182153.637403;faceUp;-0.084014892578125;-0.0614013671875;-1.058013916015625;
2024-10-17 19:22:22;1729182153.687848;faceUp;-0.1318206787109375;-0.260498046875;-0.8039093017578125;
2024-10-17 19:22:22;1729182153.7381601;faceUp;-0.024322509765625;-0.1830291748046875;-0.845672607421875;
2024-10-17 19:22:22;1729182153.788271;faceUp;0.049407958984375;-0.146759033203125;-1.02130126953125;
2024-10-17 19:22:22;1729182153.838773;faceUp;-0.0059051513671875;-0.2302398681640625;-0.8816375732421875;
2024-10-17 19:22:22;1729182153.88897;faceUp;0.001495361328125;-0.29022216796875;-0.7694549560546875;
2024-10-17 19:22:22;1729182153.939169;faceUp;-0.048614501953125;-0.3009490966796875;-0.965728759765625;
2024-10-17 19:22:22;1729182153.989478;faceUp;-0.0144195556640625;-0.3400421142578125;-0.9337158203125;
2024-10-17 19:22:22;1729182154.039711;faceUp;0.028411865234375;-0.347320556640625;-0.911163330078125;
2024-10-17 19:22:22;1729182154.090014;faceUp;0.0272674560546875;-0.344482421875;-1.0137481689453125;
2024-10-17 19:22:22;1729182154.140192;faceUp;0.062835693359375;-0.29833984375;-1.091064453125;
2024-10-17 19:22:22;1729182154.190542;faceUp;0.08770751953125;-0.270599365234375;-1.1648712158203125;
2024-10-17 19:22:22;1729182154.240817;faceUp;0.065216064453125;-0.2174224853515625;-1.225555419921875;
2024-10-17 19:22:22;1729182154.291144;faceUp;0.0843353271484375;-0.2253875732421875;-0.949981689453125;
2024-10-17 19:22:22;1729182154.3413439;faceUp;0.1100921630859375;-0.247802734375;-0.796295166015625;
2024-10-17 19:22:22;1729182154.39168;faceUp;0.0485992431640625;-0.1625823974609375;-0.9911041259765625;
2024-10-17 19:22:22;1729182154.442558;faceUp;0.018341064453125;-0.160491943359375;-0.9729461669921875;
2024-10-17 19:22:22;1729182154.4927511;faceUp;0.0704498291015625;-0.2574005126953125;-0.7377166748046875;
2024-10-17 19:22:22;1729182154.544121;faceUp;0.0771331787109375;-0.2801971435546875;-0.8553619384765625;
2024-10-17 19:22:22;1729182154.5927129;faceUp;0.0787200927734375;-0.3112335205078125;-0.9021148681640625;
2024-10-17 19:22:22;1729182154.64298;faceUp;0.1259918212890625;-0.3283843994140625;-0.89630126953125;
2024-10-17 19:22:22;1729182154.693207;faceUp;0.09796142578125;-0.393798828125;-0.9210205078125;
2024-10-17 19:22:22;1729182154.747076;faceUp;0.0471954345703125;-0.3800048828125;-0.9952850341796875;
2024-10-17 19:22:22;1729182154.793828;faceUp;0.091949462890625;-0.3466644287109375;-1.0110626220703125;
2024-10-17 19:22:22;1729182154.843964;faceUp;-0.07830810546875;-0.3409423828125;-1.0963287353515625;
2024-10-17 19:22:22;1729182154.8943539;faceUp;-0.19091796875;-0.2576141357421875;-1.1603851318359375;
2024-10-17 19:22:22;1729182154.944614;faceUp;-0.10552978515625;-0.073455810546875;-1.2014312744140625;
2024-10-17 19:22:22;1729182154.9948559;faceUp;-0.111419677734375;-0.1697845458984375;-0.8818359375;
2024-10-17 19:22:22;1729182155.045161;faceUp;-0.0899658203125;-0.271697998046875;-0.7236785888671875;
2024-10-17 19:22:22;1729182155.095392;faceUp;0.057373046875;-0.216522216796875;-0.8587188720703125;
2024-10-17 19:22:22;1729182155.145729;faceUp;0.0019683837890625;-0.270050048828125;-0.8817901611328125;
2024-10-17 19:22:22;1729182155.195926;faceUp;0.001220703125;-0.31317138671875;-0.856475830078125;
2024-10-17 19:22:22;1729182155.2461119;faceUp;0.0243682861328125;-0.3419189453125;-0.8574981689453125;
2024-10-17 19:22:22;1729182155.296377;faceUp;-0.0054168701171875;-0.3611297607421875;-0.8884429931640625;
2024-10-17 19:22:22;1729182155.346785;faceUp;-0.000274658203125;-0.386871337890625;-0.90313720703125;
2024-10-17 19:22:22;1729182155.3970551;faceUp;0.00433349609375;-0.416046142578125;-0.91912841796875;
2024-10-17 19:22:22;1729182155.447202;faceUp;0.04620361328125;-0.3841094970703125;-1.0293731689453125;
2024-10-17 19:22:22;1729182155.497581;faceUp;0.042236328125;-0.3333892822265625;-1.092987060546875;
2024-10-17 19:22:22;1729182155.5477471;faceUp;0.1087646484375;-0.2969970703125;-1.011810302734375;
2024-10-17 19:22:22;1729182155.598022;faceUp;0.1716766357421875;-0.2096405029296875;-1.0589752197265625;
2024-10-17 19:22:22;1729182155.648437;faceUp;0.1794891357421875;-0.2270660400390625;-0.90924072265625;
2024-10-17 19:22:22;1729182155.698631;faceUp;0.164306640625;-0.1792755126953125;-0.9976043701171875;
2024-10-17 19:22:22;1729182155.7489939;faceUp;0.11151123046875;-0.07415771484375;-1.2062225341796875;
2024-10-17 19:22:22;1729182155.799117;faceUp;0.0809326171875;-0.155120849609375;-0.8585662841796875;
2024-10-17 19:22:22;1729182155.846727;faceUp;0.069427490234375;-0.2652587890625;-0.6851959228515625;
2024-10-17 19:22:22;1729182155.897007;faceUp;0.0107574462890625;-0.2560577392578125;-0.833099365234375;
2024-10-17 19:22:22;1729182155.947301;faceUp;0.0084228515625;-0.2540740966796875;-0.948516845703125;
2024-10-17 19:22:22;1729182155.9975781;faceUp;-0.0225067138671875;-0.2792510986328125;-0.9477996826171875;
2024-10-17 19:22:22;1729182156.047865;faceUp;-0.2040557861328125;-0.3993072509765625;-1.19647216796875;
2024-10-17 19:22:22;1729182156.0981588;faceUp;-0.1646270751953125;-0.3047027587890625;-0.9221038818359375;
2024-10-17 19:22:22;1729182156.151074;faceUp;-0.08062744140625;-0.3162078857421875;-0.9641571044921875;
2024-10-17 19:22:22;1729182156.201356;faceUp;-0.097442626953125;-0.2913360595703125;-1.0408477783203125;
2024-10-17 19:22:22;1729182156.251511;faceUp;-0.2300262451171875;-0.2126617431640625;-1.178375244140625;
2024-10-17 19:22:22;1729182156.302664;faceUp;-0.24322509765625;-0.1069793701171875;-1.001678466796875;
2024-10-17 19:22:22;1729182156.352452;faceUp;-0.2586822509765625;-0.186187744140625;-0.840789794921875;
2024-10-17 19:22:22;1729182156.4025059;faceUp;-0.2064971923828125;-0.1441650390625;-0.9799346923828125;
2024-10-17 19:22:22;1729182156.452667;faceUp;-0.0738983154296875;-0.1544036865234375;-0.9371490478515625;
2024-10-17 19:22:22;1729182156.502866;faceUp;-0.106231689453125;-0.233856201171875;-0.846435546875;
2024-10-17 19:22:22;1729182156.553255;faceUp;-0.075103759765625;-0.22674560546875;-0.871124267578125;
2024-10-17 19:22:22;1729182156.603435;faceUp;-0.056671142578125;-0.2565765380859375;-0.89617919921875;
2024-10-17 19:22:22;1729182156.653631;faceUp;-0.0784759521484375;-0.2830352783203125;-0.9258575439453125;
2024-10-17 19:22:22;1729182156.7039099;faceUp;-0.0555572509765625;-0.333648681640625;-0.8773345947265625;
2024-10-17 19:22:22;1729182156.7543092;faceUp;-0.023406982421875;-0.322479248046875;-1.0107879638671875;
2024-10-17 19:22:22;1729182156.804648;faceUp;-0.031829833984375;-0.3187713623046875;-1.02593994140625;
2024-10-17 19:22:22;1729182156.854745;faceUp;-0.0038604736328125;-0.2778167724609375;-1.1475830078125;
2024-10-17 19:22:22;1729182156.9050488;faceUp;0.0873260498046875;-0.255706787109375;-1.052032470703125;
2024-10-17 19:22:22;1729182156.9553251;faceUp;0.0873870849609375;-0.16741943359375;-1.1488189697265625;
2024-10-17 19:22:22;1729182157.0056272;faceUp;0.120758056640625;-0.1933441162109375;-0.930572509765625;
2024-10-17 19:22:22;1729182157.0559049;faceUp;0.067840576171875;-0.155303955078125;-1.007659912109375;
2024-10-17 19:22:22;1729182157.1062021;faceUp;-0.0110321044921875;-0.185882568359375;-0.9033203125;
2024-10-17 19:22:22;1729182157.156383;faceUp;-0.058502197265625;-0.21722412109375;-0.8248291015625;
2024-10-17 19:22:22;1729182157.206733;faceUp;0.0137481689453125;-0.23193359375;-0.8343963623046875;
2024-10-17 19:22:22;1729182157.2569509;faceUp;-0.010162353515625;-0.2628173828125;-0.8478546142578125;
2024-10-17 19:22:22;1729182157.307261;faceUp;0.0185546875;-0.291351318359375;-0.9473724365234375;
2024-10-17 19:22:22;1729182157.357514;faceUp;0.021148681640625;-0.2708740234375;-0.9538726806640625;
2024-10-17 19:22:22;1729182157.4077759;faceUp;-0.0190582275390625;-0.2982940673828125;-1.0934600830078125;
2024-10-17 19:22:22;1729182157.457947;faceUp;-0.031829833984375;-0.3247528076171875;-1.02728271484375;
2024-10-17 19:22:22;1729182157.5083342;faceUp;-0.0188751220703125;-0.323577880859375;-1.0123138427734375;
2024-10-17 19:22:22;1729182157.558577;faceUp;-0.1065673828125;-0.2960968017578125;-1.010345458984375;
2024-10-17 19:22:22;1729182157.608914;faceUp;-0.1816864013671875;-0.226806640625;-1.0725250244140625;
2024-10-17 19:22:22;1729182157.6590781;faceUp;-0.1854400634765625;-0.0736083984375;-1.05621337890625;
2024-10-17 19:22:22;1729182157.709423;faceUp;-0.2396392822265625;-0.148590087890625;-0.9066619873046875;
2024-10-17 19:22:22;1729182157.759629;faceUp;-0.1874237060546875;-0.0511474609375;-1.083709716796875;
2024-10-17 19:22:22;1729182157.809866;faceUp;-0.0059814453125;-0.067047119140625;-0.9953155517578125;
2024-10-17 19:22:22;1729182157.860116;faceUp;-0.0128173828125;-0.2050323486328125;-0.833251953125;
2024-10-17 19:22:22;1729182157.91049;faceUp;-0.0387725830078125;-0.20074462890625;-0.821075439453125;
2024-10-17 19:22:22;1729182157.960716;faceUp;-0.0645751953125;-0.21624755859375;-0.932037353515625;
2024-10-17 19:22:22;1729182158.011043;faceUp;-0.0675506591796875;-0.2362213134765625;-0.9771728515625;
2024-10-17 19:22:22;1729182158.0612888;faceUp;-0.060455322265625;-0.2694091796875;-0.9502105712890625;
2024-10-17 19:22:22;1729182158.112372;faceUp;-0.0438995361328125;-0.3117523193359375;-0.9366302490234375;
2024-10-17 19:22:22;1729182158.162483;faceUp;-0.02191162109375;-0.3274993896484375;-0.9507293701171875;
2024-10-17 19:22:22;1729182158.212178;faceUp;-0.0154266357421875;-0.3403167724609375;-0.9466400146484375;
2024-10-17 19:22:22;1729182158.262344;faceUp;-0.0409088134765625;-0.323272705078125;-0.992828369140625;
2024-10-17 19:22:22;1729182158.316794;faceUp;-0.0045623779296875;-0.2608184814453125;-1.0722198486328125;
2024-10-17 19:22:22;1729182158.3629;faceUp;0.025238037109375;-0.274993896484375;-0.9310760498046875;
2024-10-17 19:22:22;1729182158.417485;faceUp;0.04864501953125;-0.1822052001953125;-1.0756378173828125;
2024-10-17 19:22:22;1729182158.463389;faceUp;0.047882080078125;-0.0960235595703125;-1.056488037109375;
2024-10-17 19:22:22;1729182158.513665;faceUp;0.0764617919921875;-0.1488189697265625;-0.939910888671875;
2024-10-17 19:22:22;1729182158.563911;faceUp;0.0231170654296875;-0.127044677734375;-0.96905517578125;
2024-10-17 19:22:22;1729182158.6142411;faceUp;0.001556396484375;-0.167266845703125;-0.932403564453125;
2024-10-17 19:22:22;1729182158.664362;faceUp;0.005096435546875;-0.21356201171875;-0.8740692138671875;
2024-10-17 19:22:22;1729182158.714839;faceUp;0.0490875244140625;-0.222198486328125;-0.9084625244140625;
2024-10-17 19:22:22;1729182158.7650042;faceUp;0.031402587890625;-0.2490081787109375;-0.8868560791015625;
2024-10-17 19:22:22;1729182158.8152509;faceUp;0.059661865234375;-0.2067413330078125;-0.988677978515625;
2024-10-17 19:22:22;1729182158.865641;faceUp;0.078948974609375;-0.2007293701171875;-1.008026123046875;
2024-10-17 19:22:22;1729182158.915879;faceUp;0.064849853515625;-0.21502685546875;-1.0422515869140625;
2024-10-17 19:22:22;1729182158.965908;faceUp;0.0399017333984375;-0.1969451904296875;-1.0775909423828125;
2024-10-17 19:22:22;1729182159.016399;faceUp;0.0070648193359375;-0.2127532958984375;-1.042938232421875;
2024-10-17 19:22:22;1729182159.0665832;faceUp;-0.1197509765625;-0.1930999755859375;-1.064056396484375;
2024-10-17 19:22:22;1729182159.116857;faceUp;-0.15887451171875;-0.142425537109375;-0.9945220947265625;
2024-10-17 19:22:22;1729182159.1671572;faceUp;-0.1800994873046875;0.044342041015625;-1.23956298828125;
2024-10-17 19:22:22;1729182159.217307;faceUp;-0.1662750244140625;-0.0911407470703125;-0.781158447265625;
2024-10-17 19:22:22;1729182159.267626;faceUp;-0.201446533203125;-0.0756378173828125;-0.98016357421875;
2024-10-17 19:22:22;1729182159.31806;faceUp;-0.0055084228515625;0.00677490234375;-1.0805816650390625;
2024-10-17 19:22:22;1729182159.3682442;faceUp;-0.022552490234375;-0.153228759765625;-0.885009765625;
2024-10-17 19:22:22;1729182159.418504;faceUp;-0.0194244384765625;-0.1986083984375;-0.8214569091796875;
2024-10-17 19:22:22;1729182159.4688148;faceUp;0.000457763671875;-0.1852569580078125;-0.927978515625;
2024-10-17 19:22:22;1729182159.5190492;faceUp;-0.024261474609375;-0.1847076416015625;-0.95684814453125;
2024-10-17 19:22:22;1729182159.569326;faceUp;-0.0113677978515625;-0.2210845947265625;-0.89862060546875;
2024-10-17 19:22:22;1729182159.61952;faceUp;-0.0160675048828125;-0.245758056640625;-0.987548828125;
2024-10-17 19:22:22;1729182159.669771;faceUp;-0.01629638671875;-0.266021728515625;-0.9900360107421875;
2024-10-17 19:22:22;1729182159.720165;faceUp;-0.0225830078125;-0.27874755859375;-0.9832763671875;
2024-10-17 19:22:22;1729182159.770245;faceUp;-0.03948974609375;-0.1961822509765625;-1.08990478515625;
2024-10-17 19:22:22;1729182159.8181;faceUp;0.007232666015625;-0.234039306640625;-0.9747467041015625;
2024-10-17 19:22:22;1729182159.868342;faceUp;0.0362548828125;-0.160797119140625;-1.0754852294921875;
2024-10-17 19:22:22;1729182159.918579;faceUp;0.0349884033203125;-0.06658935546875;-1.129852294921875;
2024-10-17 19:22:22;1729182159.968894;faceUp;0.112152099609375;-0.171142578125;-0.8625640869140625;
2024-10-17 19:22:22;1729182160.019105;faceUp;0.1052398681640625;-0.108306884765625;-0.973907470703125;
2024-10-17 19:22:22;1729182160.069421;faceUp;0.036163330078125;-0.09698486328125;-1.027679443359375;
2024-10-17 19:22:22;1729182160.119526;faceUp;0.014190673828125;-0.184295654296875;-0.89068603515625;
2024-10-17 19:22:22;1729182160.173651;faceUp;0.03436279296875;-0.1936492919921875;-0.8516387939453125;
2024-10-17 19:22:22;1729182160.224111;faceUp;0.0381317138671875;-0.1836395263671875;-0.9359588623046875;
2024-10-17 19:22:22;1729182160.2743511;faceUp;0.0317230224609375;-0.183746337890625;-0.957916259765625;
2024-10-17 19:22:22;1729182160.3246078;faceUp;0.0384521484375;-0.210479736328125;-0.921142578125;
2024-10-17 19:22:22;1729182160.3749251;faceUp;0.0120086669921875;-0.2164154052734375;-0.9891510009765625;
2024-10-17 19:22:22;1729182160.425146;faceUp;-0.0117034912109375;-0.1942901611328125;-1.0917816162109375;
2024-10-17 19:22:22;1729182160.4753652;faceUp;-0.0120697021484375;-0.2237091064453125;-1.0681915283203125;
2024-10-17 19:22:22;1729182160.5256538;faceUp;-0.07867431640625;-0.2140960693359375;-1.06170654296875;
2024-10-17 19:22:22;1729182160.575921;faceUp;-0.1616668701171875;-0.2471923828125;-0.912933349609375;
2024-10-17 19:22:22;1729182160.626167;faceUp;-0.1435394287109375;-0.032562255859375;-1.2645721435546875;
2024-10-17 19:22:22;1729182160.676361;faceUp;-0.1108551025390625;-0.0798797607421875;-0.885772705078125;
2024-10-17 19:22:22;1729182160.726759;faceUp;-0.1572265625;-0.080718994140625;-0.9813690185546875;
2024-10-17 19:22:22;1729182160.776947;faceUp;-0.0297088623046875;-0.0163726806640625;-1.0660858154296875;
2024-10-17 19:22:22;1729182160.8272638;faceUp;0.0120697021484375;-0.1118011474609375;-0.8968658447265625;
2024-10-17 19:22:22;1729182160.8776278;faceUp;-0.045318603515625;-0.176544189453125;-0.8212432861328125;
2024-10-17 19:22:22;1729182160.927813;faceUp;-0.0361480712890625;-0.1476593017578125;-0.949432373046875;
2024-10-17 19:22:22;1729182160.978127;faceUp;-0.0532989501953125;-0.1498260498046875;-0.967315673828125;
2024-10-17 19:22:22;1729182161.028328;faceUp;-0.0742645263671875;-0.193267822265625;-0.9645843505859375;
2024-10-17 19:22:22;1729182161.078609;faceUp;-0.070098876953125;-0.2049407958984375;-0.9273681640625;
2024-10-17 19:22:22;1729182161.128959;faceUp;-0.066802978515625;-0.2118682861328125;-0.9749755859375;
2024-10-17 19:22:22;1729182161.179138;faceUp;-0.060577392578125;-0.2117767333984375;-1.0382232666015625;
2024-10-17 19:22:22;1729182161.229384;faceUp;-0.066741943359375;-0.230499267578125;-1.00091552734375;
2024-10-17 19:22:22;1729182161.2796311;faceUp;-0.0344085693359375;-0.1913299560546875;-1.0855865478515625;
2024-10-17 19:22:22;1729182161.3350592;faceUp;0.0513916015625;-0.1934356689453125;-0.9681854248046875;
2024-10-17 19:22:22;1729182161.380118;faceUp;0.042510986328125;-0.099212646484375;-1.1490936279296875;
2024-10-17 19:22:22;1729182161.430437;faceUp;0.044097900390625;-0.0667877197265625;-1.011077880859375;
2024-10-17 19:22:22;1729182161.4807482;faceUp;0.1087646484375;-0.14495849609375;-0.8793792724609375;
2024-10-17 19:22:22;1729182161.531046;faceUp;0.0962371826171875;-0.09356689453125;-0.9916839599609375;
2024-10-17 19:22:22;1729182161.5813022;faceUp;0.0355682373046875;-0.1040496826171875;-0.9949188232421875;
2024-10-17 19:22:22;1729182161.631706;faceUp;0.0086212158203125;-0.187835693359375;-0.82330322265625;
2024-10-17 19:22:22;1729182161.682623;faceUp;0.0373077392578125;-0.175262451171875;-0.8460693359375;
2024-10-17 19:22:22;1729182161.732444;faceUp;0.00567626953125;-0.1828460693359375;-0.9561309814453125;
2024-10-17 19:22:22;1729182161.782448;faceUp;0.030731201171875;-0.1806488037109375;-0.9904022216796875;
2024-10-17 19:22:22;1729182161.832658;faceUp;0.0404510498046875;-0.1973724365234375;-1.005523681640625;
2024-10-17 19:22:22;1729182161.8829331;faceUp;0.020965576171875;-0.2223052978515625;-0.974884033203125;
2024-10-17 19:22:22;1729182161.9331489;faceUp;-0.0171051025390625;-0.2200775146484375;-1.049224853515625;
2024-10-17 19:22:22;1729182161.983429;faceUp;-0.013092041015625;-0.19085693359375;-1.0830841064453125;
2024-10-17 19:22:22;1729182162.03371;faceUp;0.0147247314453125;-0.2237091064453125;-1.0454559326171875;
2024-10-17 19:22:22;1729182162.084018;faceUp;-0.0287322998046875;-0.1872406005859375;-1.072479248046875;
2024-10-17 19:22:22;1729182162.1342711;faceUp;-0.0856170654296875;-0.253082275390625;-0.914764404296875;
2024-10-17 19:22:22;1729182162.18441;faceUp;-0.09991455078125;-0.033843994140625;-1.2694091796875;
2024-10-17 19:22:22;1729182162.2348099;faceUp;-0.078369140625;-0.076568603515625;-0.84063720703125;
2024-10-17 19:22:22;1729182162.285037;faceUp;-0.1749114990234375;-0.165008544921875;-0.7527618408203125;
2024-10-17 19:22:22;1729182162.3353071;faceUp;-0.1329193115234375;0.0253753662109375;-1.161376953125;
2024-10-17 19:22:22;1729182162.385632;faceUp;-0.060089111328125;-0.0627899169921875;-1.0622711181640625;
2024-10-17 19:22:22;1729182162.436456;faceUp;-0.076568603515625;-0.2285003662109375;-0.770538330078125;
2024-10-17 19:22:22;1729182162.486058;faceUp;-0.0907745361328125;-0.19134521484375;-0.80816650390625;
2024-10-17 19:22:22;1729182162.5364819;faceUp;-0.0738067626953125;-0.1423492431640625;-1.007293701171875;
2024-10-17 19:22:22;1729182162.5866308;faceUp;-0.0984649658203125;-0.1615753173828125;-0.95947265625;
2024-10-17 19:22:22;1729182162.636949;faceUp;-0.096923828125;-0.2331390380859375;-0.899932861328125;
2024-10-17 19:22:22;1729182162.687175;faceUp;-0.0876617431640625;-0.2437896728515625;-0.9716339111328125;
2024-10-17 19:22:22;1729182162.737464;faceUp;-0.0833587646484375;-0.2541351318359375;-1.04937744140625;
2024-10-17 19:22:22;1729182162.7876549;faceUp;-0.07232666015625;-0.2568817138671875;-1.0391845703125;
2024-10-17 19:22:22;1729182162.837977;faceUp;-0.06451416015625;-0.26776123046875;-1.0612030029296875;
2024-10-17 19:22:22;1729182162.88827;faceUp;-0.01507568359375;-0.21685791015625;-1.065338134765625;
2024-10-17 19:22:22;1729182162.938558;faceUp;0.0441131591796875;-0.251495361328125;-0.945404052734375;
2024-10-17 19:22:22;1729182162.98881;faceUp;0.0455169677734375;-0.04241943359375;-1.3118743896484375;
2024-10-17 19:22:22;1729182163.0391312;faceUp;0.0621337890625;-0.087005615234375;-0.9527587890625;
2024-10-17 19:22:22;1729182163.089377;faceUp;0.119110107421875;-0.1224517822265625;-0.7878570556640625;
2024-10-17 19:22:22;1729182163.1396332;faceUp;0.086456298828125;-0.1021881103515625;-0.962127685546875;
2024-10-17 19:22:22;1729182163.189855;faceUp;0.02081298828125;-0.13525390625;-0.9493408203125;
2024-10-17 19:22:22;1729182163.240189;faceUp;-0.0131378173828125;-0.2080230712890625;-0.8267364501953125;
2024-10-17 19:22:22;1729182163.290456;faceUp;-0.0055389404296875;-0.2200469970703125;-0.863128662109375;
2024-10-17 19:22:22;1729182163.340698;faceUp;-0.0113067626953125;-0.2002410888671875;-0.9399871826171875;
2024-10-17 19:22:22;1729182163.391052;faceUp;0.0229339599609375;-0.2073974609375;-0.985443115234375;
2024-10-17 19:22:22;1729182163.441226;faceUp;0.0368499755859375;-0.2619476318359375;-0.9600830078125;
2024-10-17 19:22:22;1729182163.4915261;faceUp;0.0305328369140625;-0.237701416015625;-1.0577850341796875;
2024-10-17 19:22:22;1729182163.5421848;faceUp;0.0436859130859375;-0.238739013671875;-1.0306243896484375;
2024-10-17 19:22:22;1729182163.5920548;faceUp;-0.0662078857421875;-0.219635009765625;-1.0165252685546875;
2024-10-17 19:22:22;1729182163.642684;faceUp;-0.0864105224609375;-0.2224884033203125;-0.9954986572265625;
2024-10-17 19:22:22;1729182163.692574;faceUp;-0.19451904296875;-0.210540771484375;-1.143829345703125;
2024-10-17 19:22:22;1729182163.742903;faceUp;-0.1181793212890625;-0.02734375;-1.1447601318359375;
2024-10-17 19:22:22;1729182163.7930322;faceUp;-0.189117431640625;-0.1439971923828125;-0.8200225830078125;
2024-10-17 19:22:22;1729182163.839642;faceUp;-0.2498779296875;-0.10833740234375;-0.96038818359375;
2024-10-17 19:22:22;1729182163.8898048;faceUp;-0.0743255615234375;-0.0167083740234375;-0.999908447265625;
2024-10-17 19:22:22;1729182163.9400759;faceUp;-0.089508056640625;-0.141754150390625;-0.8394012451171875;
2024-10-17 19:22:22;1729182163.99033;faceUp;-0.18634033203125;-0.230224609375;-0.869049072265625;
2024-10-17 19:22:22;1729182164.040588;faceUp;-0.10687255859375;-0.177703857421875;-0.9537200927734375;
2024-10-17 19:22:22;1729182164.091076;faceUp;-0.129486083984375;-0.2051849365234375;-0.9504241943359375;
2024-10-17 19:22:22;1729182164.14112;faceUp;-0.122467041015625;-0.2149505615234375;-0.9058685302734375;
2024-10-17 19:22:22;1729182164.19271;faceUp;-0.128997802734375;-0.2359771728515625;-0.976165771484375;
2024-10-17 19:22:22;1729182164.2429519;faceUp;-0.099761962890625;-0.2295379638671875;-1.0374298095703125;
2024-10-17 19:22:22;1729182164.29326;faceUp;-0.11712646484375;-0.2380218505859375;-1.0603485107421875;
2024-10-17 19:22:22;1729182164.343538;faceUp;-0.0934295654296875;-0.236175537109375;-1.1240234375;
2024-10-17 19:22:22;1729182164.394037;faceUp;0.005767822265625;-0.2072296142578125;-0.9687957763671875;
2024-10-17 19:22:22;1729182164.44403;faceUp;0.0067291259765625;-0.042877197265625;-1.21795654296875;
2024-10-17 19:22:22;1729182164.49431;faceUp;0.0471649169921875;-0.144500732421875;-0.8924713134765625;
2024-10-17 19:22:22;1729182164.5446482;faceUp;0.0662384033203125;-0.107421875;-0.95928955078125;
2024-10-17 19:22:22;1729182164.594837;faceUp;-0.0020904541015625;-0.049774169921875;-1.0191650390625;
2024-10-17 19:22:22;1729182164.645127;faceUp;-0.0472564697265625;-0.1173858642578125;-0.914398193359375;
2024-10-17 19:22:22;1729182164.695486;faceUp;-0.0933074951171875;-0.188323974609375;-0.8324737548828125;
2024-10-17 19:22:22;1729182164.745666;faceUp;-0.0634613037109375;-0.153472900390625;-0.94000244140625;
2024-10-17 19:22:22;1729182164.795951;faceUp;-0.0772857666015625;-0.1737518310546875;-0.944549560546875;
2024-10-17 19:22:22;1729182164.846177;faceUp;-0.0649871826171875;-0.19622802734375;-0.9411468505859375;
2024-10-17 19:22:22;1729182164.896473;faceUp;-0.0858154296875;-0.2186737060546875;-0.9858245849609375;
2024-10-17 19:22:22;1729182164.9468021;faceUp;-0.098907470703125;-0.22607421875;-1.0372314453125;
2024-10-17 19:22:22;1729182164.997009;faceUp;-0.1343994140625;-0.246337890625;-1.0596923828125;
2024-10-17 19:22:22;1729182165.04727;faceUp;-0.14263916015625;-0.242462158203125;-1.0694580078125;
2024-10-17 19:22:22;1729182165.0975819;faceUp;-0.232177734375;-0.242279052734375;-0.9892425537109375;
2024-10-17 19:22:22;1729182165.147725;faceUp;-0.2228851318359375;-0.1444244384765625;-1.14501953125;
2024-10-17 19:22:22;1729182165.1979098;faceUp;-0.168670654296875;-0.0927886962890625;-0.9836273193359375;
2024-10-17 19:22:22;1729182165.248187;faceUp;-0.3114013671875;-0.138092041015625;-0.768707275390625;
2024-10-17 19:22:22;1729182165.298528;faceUp;-0.2219390869140625;-0.06097412109375;-1.0733642578125;
2024-10-17 19:22:22;1729182165.348833;faceUp;-0.1635589599609375;-0.0687713623046875;-0.9789581298828125;
2024-10-17 19:22:22;1729182165.3989959;faceUp;-0.124267578125;-0.2243499755859375;-0.7695465087890625;
2024-10-17 19:22:22;1729182165.449366;faceUp;-0.19244384765625;-0.238067626953125;-0.949249267578125;
2024-10-17 19:22:22;1729182165.4995332;faceUp;-0.12603759765625;-0.2228851318359375;-0.86578369140625;
2024-10-17 19:22:22;1729182165.549834;faceUp;-0.1196746826171875;-0.224395751953125;-1.0159454345703125;
2024-10-17 19:22:22;1729182165.600239;faceUp;-0.1734466552734375;-0.2912139892578125;-0.955596923828125;
2024-10-17 19:22:22;1729182165.65068;faceUp;-0.0926666259765625;-0.2970733642578125;-0.9037933349609375;
2024-10-17 19:22:22;1729182165.70066;faceUp;-0.069091796875;-0.2022857666015625;-1.1140899658203125;
2024-10-17 19:22:22;1729182165.75084;faceUp;-0.0321502685546875;-0.2317352294921875;-1.009796142578125;
2024-10-17 19:22:22;1729182165.801097;faceUp;0.0102996826171875;-0.21124267578125;-1.0569915771484375;
2024-10-17 19:22:22;1729182165.851578;faceUp;-0.0010528564453125;-0.2398834228515625;-0.954742431640625;
2024-10-17 19:22:22;1729182165.9025168;faceUp;-0.0728302001953125;-0.080047607421875;-1.1446990966796875;
2024-10-17 19:22:22;1729182165.951935;faceUp;0.050994873046875;-0.064849853515625;-0.9962158203125;
2024-10-17 19:22:22;1729182166.002228;faceUp;-0.0024871826171875;-0.1129302978515625;-0.9554290771484375;
2024-10-17 19:22:22;1729182166.052486;faceUp;-0.079681396484375;-0.073089599609375;-1.029205322265625;
2024-10-17 19:22:22;1729182166.102711;faceUp;-0.06378173828125;-0.17669677734375;-0.8624420166015625;
2024-10-17 19:22:22;1729182166.153189;faceUp;-0.0269622802734375;-0.17218017578125;-0.83660888671875;
2024-10-17 19:22:22;1729182166.203378;faceUp;0.0664215087890625;-0.1669921875;-0.91363525390625;
2024-10-17 19:22:22;1729182166.253687;faceUp;-0.0675811767578125;-0.26593017578125;-0.8803863525390625;
2024-10-17 19:22:22;1729182166.30405;faceUp;0.0570068359375;-0.267120361328125;-0.8369293212890625;
2024-10-17 19:22:22;1729182166.354301;faceUp;-0.0511627197265625;-0.3099517822265625;-1.05877685546875;
2024-10-17 19:22:22;1729182166.4045038;faceUp;0.03387451171875;-0.255645751953125;-0.9911041259765625;
2024-10-17 19:22:22;1729182166.454901;faceUp;-0.0315093994140625;-0.255340576171875;-1.1050262451171875;
2024-10-17 19:22:22;1729182166.505055;faceUp;-0.131439208984375;-0.300994873046875;-0.930023193359375;
2024-10-17 19:22:22;1729182166.555373;faceUp;-0.2385406494140625;-0.281005859375;-1.0303955078125;
2024-10-17 19:22:22;1729182166.605647;faceUp;-0.1958770751953125;-0.0742950439453125;-1.2907562255859375;
2024-10-17 19:22:22;1729182166.656046;faceUp;-0.1472320556640625;-0.160186767578125;-0.861175537109375;
2024-10-17 19:22:22;1729182166.7061949;faceUp;-0.1984710693359375;-0.14251708984375;-0.876708984375;
2024-10-17 19:22:22;1729182166.7566118;faceUp;-0.1148223876953125;0.02178955078125;-1.1331634521484375;
2024-10-17 19:22:22;1729182166.806757;faceUp;0.006378173828125;-0.156982421875;-0.7926483154296875;
2024-10-17 19:22:22;1729182166.857008;faceUp;-0.0727691650390625;-0.1999359130859375;-0.7346954345703125;
2024-10-17 19:22:22;1729182166.907336;faceUp;0.020294189453125;-0.143310546875;-0.9266357421875;
2024-10-17 19:22:22;1729182166.9576101;faceUp;-0.178680419921875;-0.2193756103515625;-1.034210205078125;
2024-10-17 19:22:22;1729182167.007803;faceUp;-0.1055450439453125;-0.239471435546875;-0.8880157470703125;
2024-10-17 19:22:22;1729182167.058126;faceUp;-0.1697540283203125;-0.267120361328125;-0.995391845703125;
2024-10-17 19:22:22;1729182167.1083322;faceUp;-0.15826416015625;-0.2530517578125;-0.8382415771484375;
2024-10-17 19:22:22;1729182167.158601;faceUp;-0.082794189453125;-0.2148590087890625;-1.0819854736328125;
2024-10-17 19:22:22;1729182167.2090502;faceUp;-0.175872802734375;-0.245513916015625;-1.0669708251953125;
2024-10-17 19:22:22;1729182167.2591848;faceUp;-0.14556884765625;-0.1886444091796875;-1.185455322265625;
2024-10-17 19:22:22;1729182167.309412;faceUp;-0.0410308837890625;-0.036224365234375;-1.062530517578125;
2024-10-17 19:22:22;1729182167.359743;faceUp;-0.06890869140625;-0.132965087890625;-0.951416015625;
2024-10-17 19:22:22;1729182167.429871;faceUp;0.04302978515625;-0.023284912109375;-0.9548187255859375;
2024-10-17 19:22:22;1729182167.480284;faceUp;-0.127471923828125;-0.1401519775390625;-1.0688934326171875;
2024-10-17 19:22:22;1729182167.5305638;faceUp;-0.0658416748046875;-0.2164306640625;-0.8841552734375;
2024-10-17 19:22:22;1729182167.5808759;faceUp;0.03729248046875;-0.1690216064453125;-0.8446502685546875;
2024-10-17 19:22:22;1729182167.631182;faceUp;-0.0247650146484375;-0.2345123291015625;-0.8903961181640625;
2024-10-17 19:22:22;1729182167.682119;faceUp;0.03436279296875;-0.1563720703125;-0.995635986328125;
2024-10-17 19:22:22;1729182167.731637;faceUp;0.0133209228515625;-0.2360076904296875;-1.002410888671875;
2024-10-17 19:22:22;1729182167.781857;faceUp;-0.025390625;-0.2578125;-0.9693450927734375;
2024-10-17 19:22:22;1729182167.831943;faceUp;0.054656982421875;-0.193359375;-1.100982666015625;
2024-10-17 19:22:22;1729182167.88231;faceUp;-0.0438385009765625;-0.2049407958984375;-1.121124267578125;
2024-10-17 19:22:22;1729182167.932468;faceUp;-0.1029205322265625;-0.2666473388671875;-0.8506927490234375;
2024-10-17 19:22:22;1729182167.982811;faceUp;-0.0857391357421875;-0.0755462646484375;-1.079559326171875;
2024-10-17 19:22:22;1729182168.033006;faceUp;-0.107757568359375;-0.0769805908203125;-0.999542236328125;
2024-10-17 19:22:22;1729182168.0833158;faceUp;-0.15704345703125;-0.08367919921875;-0.8309326171875;
2024-10-17 19:22:22;1729182168.133611;faceUp;0.0470123291015625;-0.0027008056640625;-0.946075439453125;
2024-10-17 19:22:22;1729182168.184175;faceUp;0.1194305419921875;-0.175506591796875;-0.794952392578125;
2024-10-17 19:22:22;1729182168.234318;faceUp;0.08795166015625;-0.0543060302734375;-1.0255889892578125;
2024-10-17 19:22:22;1729182168.2846332;faceUp;0.0242462158203125;-0.1253662109375;-0.899871826171875;
2024-10-17 19:22:22;1729182168.334995;faceUp;0.0573577880859375;-0.153411865234375;-1.022247314453125;
2024-10-17 19:22:22;1729182168.385182;faceUp;0.0639495849609375;-0.2153778076171875;-0.9071807861328125;
2024-10-17 19:22:22;1729182168.4354239;faceUp;0.071014404296875;-0.1971435546875;-1.0139923095703125;
2024-10-17 19:22:22;1729182168.4856958;faceUp;0.0998382568359375;-0.1574554443359375;-1.1385040283203125;
2024-10-17 19:22:22;1729182168.5359778;faceUp;0.087066650390625;-0.182830810546875;-1.0406341552734375;
2024-10-17 19:22:22;1729182168.5862432;faceUp;0.17608642578125;-0.1834716796875;-1.073272705078125;
2024-10-17 19:22:22;1729182168.6364899;faceUp;0.14959716796875;-0.0304718017578125;-1.152557373046875;
2024-10-17 19:22:22;1729182168.686836;faceUp;0.1405792236328125;-0.020965576171875;-1.096038818359375;
2024-10-17 19:22:22;1729182168.73697;faceUp;0.15679931640625;-0.1033172607421875;-0.8671722412109375;
2024-10-17 19:22:22;1729182168.787231;faceUp;0.1565704345703125;-0.076995849609375;-0.9767608642578125;
2024-10-17 19:22:22;1729182168.837411;faceUp;0.0409698486328125;-0.093475341796875;-0.93115234375;
2024-10-17 19:22:22;1729182168.888074;faceUp;0.03515625;-0.146820068359375;-0.857086181640625;
2024-10-17 19:22:22;1729182168.938062;faceUp;0.033447265625;-0.158905029296875;-0.833892822265625;
2024-10-17 19:22:22;1729182168.988389;faceUp;0.02740478515625;-0.18621826171875;-0.872894287109375;
2024-10-17 19:22:22;1729182169.038811;faceUp;0.0500640869140625;-0.1757965087890625;-0.950103759765625;
2024-10-17 19:22:22;1729182169.0894918;faceUp;0.0378570556640625;-0.2166900634765625;-0.892425537109375;
2024-10-17 19:22:22;1729182169.1392899;faceUp;0.008544921875;-0.2176513671875;-1.029754638671875;
2024-10-17 19:22:22;1729182169.189578;faceUp;-0.037750244140625;-0.20050048828125;-1.0025787353515625;
2024-10-17 19:22:22;1729182169.239851;faceUp;-0.0146026611328125;-0.227264404296875;-1.0454864501953125;
2024-10-17 19:22:22;1729182169.28987;faceUp;-0.151031494140625;-0.1915740966796875;-1.116668701171875;
2024-10-17 19:22:22;1729182169.340228;faceUp;-0.1557159423828125;-0.10174560546875;-1.062774658203125;
2024-10-17 19:22:22;1729182169.390592;faceUp;-0.198974609375;-0.0071563720703125;-1.2215118408203125;
2024-10-17 19:22:22;1729182169.440819;faceUp;-0.2028350830078125;0.0094146728515625;-0.9852752685546875;
2024-10-17 19:22:22;1729182169.49234;faceUp;-0.1407928466796875;0.000213623046875;-1.0507659912109375;
2024-10-17 19:22:22;1729182169.5413132;faceUp;-0.056121826171875;-0.046600341796875;-0.92498779296875;
2024-10-17 19:22:22;1729182169.5914521;faceUp;-0.0694427490234375;-0.1013031005859375;-0.878936767578125;
2024-10-17 19:22:22;1729182169.641889;faceUp;-0.0831451416015625;-0.1387176513671875;-0.8750762939453125;
2024-10-17 19:22:22;1729182169.6919389;faceUp;-0.0897064208984375;-0.1482391357421875;-0.9167938232421875;
2024-10-17 19:22:22;1729182169.7428598;faceUp;-0.0836334228515625;-0.1544342041015625;-0.9105072021484375;
2024-10-17 19:22:22;1729182169.7926788;faceUp;-0.0953521728515625;-0.1767578125;-0.919281005859375;
2024-10-17 19:22:22;1729182169.8429918;faceUp;-0.078155517578125;-0.2117156982421875;-0.929351806640625;
2024-10-17 19:22:22;1729182169.893299;faceUp;-0.0600738525390625;-0.2219390869140625;-0.9695281982421875;
2024-10-17 19:22:22;1729182169.943503;faceUp;-0.059478759765625;-0.23004150390625;-1.04107666015625;
2024-10-17 19:22:22;1729182169.993688;faceUp;-0.0723419189453125;-0.230621337890625;-0.9868316650390625;
2024-10-17 19:22:22;1729182170.044015;faceUp;-0.0299530029296875;-0.1951446533203125;-1.05963134765625;
2024-10-17 19:22:22;1729182170.094388;faceUp;-0.02197265625;-0.1876678466796875;-1.055908203125;
2024-10-17 19:22:22;1729182170.1442618;faceUp;-0.0169525146484375;0.0207977294921875;-1.245758056640625;
2024-10-17 19:22:22;1729182170.194796;faceUp;0.008575439453125;0.008514404296875;-1.172760009765625;
2024-10-17 19:22:22;1729182170.245039;faceUp;0.023773193359375;-0.024322509765625;-0.8894195556640625;
2024-10-17 19:22:22;1729182170.295364;faceUp;-0.0612030029296875;-0.0276031494140625;-0.9622344970703125;
2024-10-17 19:22:22;1729182170.345518;faceUp;-0.080780029296875;-0.03594970703125;-0.929931640625;
2024-10-17 19:22:22;1729182170.3959188;faceUp;-0.0960845947265625;-0.0608673095703125;-0.9256591796875;
2024-10-17 19:22:22;1729182170.4461331;faceUp;-0.0950927734375;-0.0972137451171875;-0.967010498046875;
